Holder,Action,blocks.thisRepN,blocks.thisTrialN,blocks.thisN,blocks.thisIndex,trials.thisRepN,trials.thisTrialN,trials.thisN,trials.thisIndex,start_msg.started,start_msg.stopped,RespButton_start_trial.keys,RespButton_start_trial.rt,RespButton_start_trial.started,RespButton_start_trial.stopped,GREEN.started,GREEN.stopped,LEFT_RED.started,LEFT_RED.stopped,RIGHT_RED.started,RIGHT_RED.stopped,LEFT_CIRCLE.started,LEFT_CIRCLE.stopped,CENTER_CIRCLE.started,CENTER_CIRCLE.stopped,RIGHT_CIRCLE.started,RIGHT_CIRCLE.stopped,SOUND_DELAY_MS_LEFT,SOUND_DELAY_MS_RIGHT,CORRECT,VALIDITY,RELEASE_TIME,TOUCH_TIME,BOTTLE_RESPONSE_POSITION,text.started,text.stopped,pid,left_position,right_position,date,expName,psychopyVersion,frameRate,
right,go,0,0,0,0,0,0,0,4,44.25060701370239,None,1,1.7627270221710205,44.25060701370239,None,46.10826110839844,None,47.12916612625122,47.46484112739563,47.12916612625122,47.46484112739563,46.10826110839844,None,46.10826110839844,None,46.10826110839844,None,-1,-1,1,True,478.75499725341797,1096.4665412902832,right,49.57609701156616,None,pp_04_1,icub,clamp,2021_Dec_21_1241,exp,2021.2.3,59.92873084319928,
left,go,0,0,0,0,0,1,1,1,50.0859169960022,None,1,1.331268072128296,50.0859169960022,None,51.497668981552124,None,52.51470398902893,52.87296199798584,52.51470398902893,52.87296199798584,51.497668981552124,None,51.497668981552124,None,51.497668981552124,None,-1,-1,1,True,363.25716972351074,701.3592720031738,left,54.461833000183105,None,pp_04_1,icub,clamp,2021_Dec_21_1241,exp,2021.2.3,59.92873084319928,
right,stop,0,0,0,0,0,2,2,5,54.980624198913574,None,1,1.4889469146728516,54.980624198913574,None,56.571152210235596,None,57.60077714920044,57.95510506629944,57.60077714920044,57.95510506629944,56.571152210235596,None,56.571152210235596,None,56.571152210235596,None,500,500,0,True,422.8966236114502,754.5609474182129,right,59.64875912666321,None,pp_04_1,icub,clamp,2021_Dec_21_1241,exp,2021.2.3,59.92873084319928,
left,go,0,0,0,0,0,3,3,0,60.157270193099976,None,1,1.107116937637329,60.157270193099976,None,61.378629207611084,None,62.3808159828186,62.74343514442444,62.3808159828186,62.74343514442444,61.378629207611084,None,61.378629207611084,None,61.378629207611084,None,-1,-1,1,True,495.4640865325928,713.2987976074219,left,64.48672199249268,None,pp_04_1,icub,clamp,2021_Dec_21_1241,exp,2021.2.3,59.92873084319928,
right,stop,0,0,0,0,0,4,4,5,64.98886203765869,None,1,0.8430747985839844,64.98886203765869,None,65.96044707298279,None,66.98416900634766,67.32734799385071,66.98416900634766,67.32734799385071,65.96044707298279,None,65.96044707298279,None,65.96044707298279,None,500,450,0,True,336.1482620239258,830.1510810852051,right,69.01650500297546,None,pp_04_1,icub,clamp,2021_Dec_21_1241,exp,2021.2.3,59.92873084319928,
left,go,0,0,0,0,0,5,5,0,69.53526997566223,None,1,0.8975429534912109,69.53526997566223,None,70.5084810256958,None,71.53381204605103,71.89714002609253,71.53381204605103,71.89714002609253,70.5084810256958,None,70.5084810256958,None,70.5084810256958,None,-1,-1,1,True,668.7929630279541,722.6285934448242,left,73.78440999984741,None,pp_04_1,icub,clamp,2021_Dec_21_1241,exp,2021.2.3,59.92873084319928,
left,go,0,0,0,0,1,0,6,0,74.30395698547363,None,1,0.6620368957519531,74.30395698547363,None,75.08892512321472,None,76.08391904830933,76.42793917655945,76.08391904830933,76.42793917655945,75.08892512321472,None,75.08892512321472,None,75.08892512321472,None,-1,-1,1,True,422.6574897766113,699.6972560882568,left,78.11668419837952,None,pp_04_1,icub,clamp,2021_Dec_21_1241,exp,2021.2.3,59.92873084319928,
left,go,0,0,0,0,1,1,7,0,78.61858606338501,None,1,0.7252688407897949,78.61858606338501,None,79.45950508117676,None,80.47738313674927,80.81880497932434,80.47738313674927,80.81880497932434,79.45950508117676,None,79.45950508117676,None,79.45950508117676,None,-1,-1,1,True,282.4513912200928,634.5293521881104,left,82.26643514633179,None,pp_04_1,icub,clamp,2021_Dec_21_1241,exp,2021.2.3,59.92873084319928,
left,go,0,0,0,0,1,2,8,0,82.77708101272583,None,1,0.7889358997344971,82.77708101272583,None,83.68893718719482,None,84.69738912582397,85.03353118896484,84.69738912582397,85.03353118896484,83.68893718719482,None,83.68893718719482,None,83.68893718719482,None,-1,-1,1,True,396.59833908081055,664.3354892730713,left,86.64470100402832,None,pp_04_1,icub,clamp,2021_Dec_21_1241,exp,2021.2.3,59.92873084319928,
left,stop,0,0,0,0,1,3,9,2,87.17585706710815,None,1,0.6449790000915527,87.17585706710815,None,87.90439009666443,None,88.91018605232239,89.25990605354309,88.91018605232239,89.25990605354309,87.90439009666443,None,87.90439009666443,None,87.90439009666443,None,500,400,0,True,504.8823356628418,632.976770401001,left,90.92879605293274,None,pp_04_1,icub,clamp,2021_Dec_21_1241,exp,2021.2.3,59.92873084319928,
right,go,0,0,0,0,1,4,10,4,91.4449691772461,None,1,0.6703310012817383,91.4449691772461,None,92.22180509567261,None,93.23894619941711,93.57782912254333,93.23894619941711,93.57782912254333,92.22180509567261,None,92.22180509567261,None,92.22180509567261,None,-1,-1,1,True,425.61912536621094,696.8257427215576,right,95.23567914962769,None,pp_04_1,icub,clamp,2021_Dec_21_1241,exp,2021.2.3,59.92873084319928,
right,go,0,0,0,0,1,5,11,4,95.76319003105164,None,1,0.665489912033081,95.76319003105164,None,96.5536961555481,None,97.56155920028687,97.91270804405212,97.56155920028687,97.91270804405212,96.5536961555481,None,96.5536961555481,None,96.5536961555481,None,-1,-1,1,True,493.908166885376,625.622034072876,right,99.54437518119812,None,pp_04_1,icub,clamp,2021_Dec_21_1241,exp,2021.2.3,59.92873084319928,
right,go,0,0,0,0,2,0,12,4,100.07361006736755,None,1,0.6242940425872803,100.07361006736755,None,100.79939413070679,None,101.82371520996094,102.17404007911682,101.82371520996094,102.17404007911682,100.79939413070679,None,100.79939413070679,None,100.79939413070679,None,-1,-1,1,True,380.535364151001,575.4141807556152,right,103.65930414199829,None,pp_04_1,icub,clamp,2021_Dec_21_1241,exp,2021.2.3,59.92873084319928,
right,go,0,0,0,0,2,1,13,4,104.16057300567627,None,1,0.6032209396362305,104.16057300567627,None,104.88830208778381,None,105.90408110618591,106.24674415588379,105.90408110618591,106.24674415588379,104.88830208778381,None,104.88830208778381,None,104.88830208778381,None,-1,-1,1,True,310.55212020874023,691.8907165527344,right,107.775475025177,None,pp_04_1,icub,clamp,2021_Dec_21_1241,exp,2021.2.3,59.92873084319928,
right,go,0,0,0,0,2,2,14,3,108.3025951385498,None,1,0.4865250587463379,108.3025951385498,None,108.90877509117126,None,109.92616105079651,110.29824304580688,109.92616105079651,110.29824304580688,108.90877509117126,None,108.90877509117126,None,108.90877509117126,None,-1,-1,1,True,316.44344329833984,664.2129421234131,right,111.76847219467163,None,pp_04_1,icub,clamp,2021_Dec_21_1241,exp,2021.2.3,59.92873084319928,
left,go,0,0,0,0,2,3,15,0,112.27275800704956,None,1,0.6920521259307861,112.27275800704956,None,113.06290102005005,None,114.07494616508484,114.42027401924133,114.07494616508484,114.42027401924133,113.06290102005005,None,113.06290102005005,None,113.06290102005005,None,-1,-1,1,True,361.0243797302246,710.9415531158447,left,116.02348709106445,None,pp_04_1,icub,clamp,2021_Dec_21_1241,exp,2021.2.3,59.92873084319928,
right,go,0,0,0,0,2,4,16,3,116.53310012817383,None,1,0.6946840286254883,116.53310012817383,None,117.32232713699341,None,118.347971200943,118.70557713508606,118.347971200943,118.70557713508606,117.32232713699341,None,117.32232713699341,None,117.32232713699341,None,-1,-1,1,True,480.1492691040039,632.0621967315674,right,120.33876514434814,None,pp_04_1,icub,clamp,2021_Dec_21_1241,exp,2021.2.3,59.92873084319928,
right,go,0,0,0,0,2,5,17,4,120.84418201446533,None,1,0.9914939403533936,120.84418201446533,None,121.94414019584656,None,122.96623015403748,123.32164716720581,122.96623015403748,123.32164716720581,121.94414019584656,None,121.94414019584656,None,121.94414019584656,None,-1,-1,1,True,363.1329536437988,593.0781364440918,right,124.80232810974121,None,pp_04_1,icub,clamp,2021_Dec_21_1241,exp,2021.2.3,59.92873084319928,
right,stop,0,0,0,0,3,0,18,5,125.31924200057983,None,1,0.5580239295959473,125.31924200057983,None,125.97272515296936,None,126.98277401924133,127.34041404724121,126.98277401924133,127.34041404724121,125.97272515296936,None,125.97272515296936,None,125.97272515296936,None,450,400,0,True,342.5860404968262,653.4643173217773,right,128.87044715881348,None,pp_04_1,icub,clamp,2021_Dec_21_1241,exp,2021.2.3,59.92873084319928,
right,go,0,0,0,0,3,1,19,4,129.3758671283722,None,1,0.687615156173706,129.3758671283722,None,130.1630301475525,None,131.1642360687256,131.51780605316162,131.1642360687256,131.51780605316162,130.1630301475525,None,130.1630301475525,None,130.1630301475525,None,-1,-1,1,True,176.17154121398926,727.8234958648682,right,132.95037412643433,None,pp_04_1,icub,clamp,2021_Dec_21_1241,exp,2021.2.3,59.92873084319928,
right,go,0,0,0,0,3,2,20,3,133.46959114074707,None,1,0.6140561103820801,133.46959114074707,None,134.1975290775299,None,135.20544505119324,135.53762912750244,135.20544505119324,135.53762912750244,134.1975290775299,None,134.1975290775299,None,134.1975290775299,None,-1,-1,1,True,262.74895668029785,637.505292892456,right,137.008474111557,None,pp_04_1,icub,clamp,2021_Dec_21_1241,exp,2021.2.3,59.92873084319928,
right,go,0,0,0,0,3,3,21,3,137.5170340538025,None,1,0.612572193145752,137.5170340538025,None,138.2445831298828,None,139.23641109466553,139.58818817138672,139.23641109466553,139.58818817138672,138.2445831298828,None,138.2445831298828,None,138.2445831298828,None,-1,-1,1,True,310.8484745025635,627.7310848236084,right,141.09010219573975,None,pp_04_1,icub,clamp,2021_Dec_21_1241,exp,2021.2.3,59.92873084319928,
left,go,0,0,0,0,3,4,22,1,141.61034297943115,None,1,0.5748729705810547,141.61034297943115,None,142.27586197853088,None,143.27753806114197,143.6354660987854,143.27753806114197,143.6354660987854,142.27586197853088,None,142.27586197853088,None,142.27586197853088,None,,,0,False,3000.2760887145996,-1.0,-1,147.1570770740509,None,pp_04_1,icub,clamp,2021_Dec_21_1241,exp,2021.2.3,59.92873084319928,
left,go,0,0,0,0,3,5,23,1,147.64960718154907,None,1,0.41817712783813477,147.64960718154907,None,148.1912181377411,None,149.1933422088623,149.54123902320862,149.1933422088623,149.54123902320862,148.1912181377411,None,148.1912181377411,None,148.1912181377411,None,-1,-1,1,True,351.96614265441895,655.9371948242188,left,151.07928800582886,None,pp_04_1,icub,clamp,2021_Dec_21_1241,exp,2021.2.3,59.92873084319928,
left,go,0,0,0,0,4,0,24,0,151.58965611457825,None,1,0.7958049774169922,151.58965611457825,None,152.5054521560669,None,153.53428101539612,153.88412499427795,153.53428101539612,153.88412499427795,152.5054521560669,None,152.5054521560669,None,152.5054521560669,None,-1,-1,1,True,329.03337478637695,709.7156047821045,left,155.4516990184784,None,pp_04_1,icub,clamp,2021_Dec_21_1241,exp,2021.2.3,59.92873084319928,
right,go,0,0,0,0,4,1,25,3,155.96463203430176,None,1,0.8059968948364258,155.96463203430176,None,156.88120698928833,None,157.89635014533997,158.21991109848022,157.89635014533997,158.21991109848022,156.88120698928833,None,156.88120698928833,None,156.88120698928833,None,-1,-1,1,True,280.1942825317383,680.5734634399414,right,159.74199604988098,None,pp_04_1,icub,clamp,2021_Dec_21_1241,exp,2021.2.3,59.92873084319928,
left,go,0,0,0,0,4,2,26,1,160.24835419654846,None,1,0.7230720520019531,160.24835419654846,None,161.09931015968323,None,162.1337730884552,162.48796200752258,162.1337730884552,162.48796200752258,161.09931015968323,None,161.09931015968323,None,161.09931015968323,None,-1,-1,1,True,409.6252918243408,633.3208084106445,left,164.03311109542847,None,pp_04_1,icub,clamp,2021_Dec_21_1241,exp,2021.2.3,59.92873084319928,
left,go,0,0,0,0,4,3,27,0,164.55448818206787,None,1,1.5070431232452393,164.55448818206787,None,166.18551421165466,None,167.21843004226685,167.5473210811615,167.21843004226685,167.5473210811615,166.18551421165466,None,166.18551421165466,None,166.18551421165466,None,-1,-1,1,True,357.1503162384033,582.0040702819824,left,169.0051600933075,None,pp_04_1,icub,clamp,2021_Dec_21_1241,exp,2021.2.3,59.92873084319928,
right,stop,0,0,0,0,4,4,28,5,169.51498818397522,None,1,0.8464300632476807,169.51498818397522,None,170.48940110206604,None,171.50572800636292,171.8608260154724,171.50572800636292,171.8608260154724,170.48940110206604,None,170.48940110206604,None,170.48940110206604,None,450,350,0,True,358.9026927947998,596.2338447570801,right,173.33169507980347,None,pp_04_1,icub,clamp,2021_Dec_21_1241,exp,2021.2.3,59.92873084319928,
left,stop,0,0,0,0,4,5,29,2,173.850821018219,None,1,0.5174269676208496,173.850821018219,None,174.4528911113739,None,175.44746708869934,175.7958161830902,175.44746708869934,175.7958161830902,174.4528911113739,None,174.4528911113739,None,174.4528911113739,None,450,300,0,True,435.4979991912842,622.3077774047852,left,177.42317914962769,None,pp_04_1,icub,clamp,2021_Dec_21_1241,exp,2021.2.3,59.92873084319928,
right,go,0,0,0,0,5,0,30,4,177.94264101982117,None,1,1.0070359706878662,177.94264101982117,None,179.03508400917053,None,180.05941009521484,180.4186270236969,180.05941009521484,180.4186270236969,179.03508400917053,None,179.03508400917053,None,179.03508400917053,None,-1,-1,1,True,364.3622398376465,590.2073383331299,right,181.88694405555725,None,pp_04_1,icub,clamp,2021_Dec_21_1241,exp,2021.2.3,59.92873084319928,
left,go,0,0,0,0,5,1,31,1,182.4133861064911,None,1,0.776209831237793,182.4133861064911,None,183.26492500305176,None,184.25940704345703,184.60216808319092,184.25940704345703,184.60216808319092,183.26492500305176,None,183.26492500305176,None,183.26492500305176,None,-1,-1,1,True,332.63230323791504,515.0082111358643,left,186.02095413208008,None,pp_04_1,icub,clamp,2021_Dec_21_1241,exp,2021.2.3,59.92873084319928,
right,stop,0,0,0,0,5,2,32,5,186.53186106681824,None,1,0.7648510932922363,186.53186106681824,None,187.38226509094238,None,188.40025901794434,188.72633409500122,188.40025901794434,188.72633409500122,187.38226509094238,None,187.38226509094238,None,187.38226509094238,None,400,300,0,True,246.02222442626953,514.462947845459,right,190.04154801368713,None,pp_04_1,icub,clamp,2021_Dec_21_1241,exp,2021.2.3,59.92873084319928,
right,stop,0,0,0,0,5,3,33,5,190.545312166214,None,1,0.7358720302581787,190.545312166214,None,191.39454007148743,None,192.40830302238464,192.75983810424805,192.40830302238464,192.75983810424805,191.39454007148743,None,191.39454007148743,None,191.39454007148743,None,400,250,1,True,367.05636978149414,-1.0,-1,196.6548252105713,None,pp_04_1,icub,clamp,2021_Dec_21_1241,exp,2021.2.3,59.92873084319928,
right,go,0,0,0,0,5,4,34,3,197.14746403694153,None,1,0.5133919715881348,197.14746403694153,None,197.7524151802063,None,198.73795819282532,199.08714818954468,198.73795819282532,199.08714818954468,197.7524151802063,None,197.7524151802063,None,197.7524151802063,None,-1,-1,1,True,313.01140785217285,675.4648685455322,right,200.60598301887512,None,pp_04_1,icub,clamp,2021_Dec_21_1241,exp,2021.2.3,59.92873084319928,
right,stop,0,0,0,0,5,5,35,5,201.10677814483643,None,1,0.6584939956665039,201.10677814483643,None,201.8847141265869,None,202.90373420715332,203.25070309638977,202.90373420715332,203.25070309638977,201.8847141265869,None,201.8847141265869,None,201.8847141265869,None,400,300,1,True,360.0447177886963,-1.0,-1,207.14027905464172,None,pp_04_1,icub,clamp,2021_Dec_21_1241,exp,2021.2.3,59.92873084319928,
right,stop,0,0,0,0,6,0,36,5,207.67186498641968,None,1,0.6048660278320312,207.67186498641968,None,208.40725708007812,None,209.39405918121338,209.74639916419983,209.39405918121338,209.74639916419983,208.40725708007812,None,208.40725708007812,None,208.40725708007812,None,400,350,0,True,164.66760635375977,558.8905811309814,right,211.03854513168335,None,pp_04_1,icub,clamp,2021_Dec_21_1241,exp,2021.2.3,59.92873084319928,
left,go,0,0,0,0,6,1,37,0,211.57097101211548,None,1,1.8922021389007568,211.57097101211548,None,213.5387840270996,None,214.53053617477417,214.8786940574646,214.53053617477417,214.8786940574646,213.5387840270996,None,213.5387840270996,None,213.5387840270996,None,-1,-1,1,True,62.6988410949707,598.8912582397461,left,216.07577419281006,None,pp_04_1,icub,clamp,2021_Dec_21_1241,exp,2021.2.3,59.92873084319928,
left,stop,0,0,0,0,6,2,38,2,216.58631420135498,None,1,0.7308468818664551,216.58631420135498,None,217.43772506713867,None,218.43370413780212,218.7826771736145,218.43370413780212,218.7826771736145,217.43772506713867,None,217.43772506713867,None,217.43772506713867,None,400,300,0,True,304.45313453674316,508.36706161499023,left,220.1327350139618,None,pp_04_1,icub,clamp,2021_Dec_21_1241,exp,2021.2.3,59.92873084319928,
left,stop,0,0,0,0,6,3,39,2,220.6509120464325,None,1,1.1031160354614258,220.6509120464325,None,221.8698251247406,None,222.87727618217468,223.21680212020874,222.87727618217468,223.21680212020874,221.8698251247406,None,221.8698251247406,None,221.8698251247406,None,350,300,1,True,303.99179458618164,-1.0,-1,227.05804300308228,None,pp_04_1,icub,clamp,2021_Dec_21_1241,exp,2021.2.3,59.92873084319928,
left,stop,0,0,0,0,6,4,40,2,227.5795841217041,None,1,0.6302671432495117,227.5795841217041,None,228.3048961162567,None,229.31786012649536,229.6820089817047,229.31786012649536,229.6820089817047,228.3048961162567,None,228.3048961162567,None,228.3048961162567,None,,,0,False,-1.0,-1.0,-1,230.13323497772217,None,pp_04_1,icub,clamp,2021_Dec_21_1241,exp,2021.2.3,59.92873084319928,
right,stop,0,0,0,0,6,5,41,5,230.65167999267578,None,1,1.2252609729766846,230.65167999267578,None,231.9819781780243,None,233.00191497802734,233.35348105430603,233.00191497802734,233.35348105430603,231.9819781780243,None,231.9819781780243,None,231.9819781780243,None,400,300,1,True,450.93727111816406,-1.0,-1,237.329843044281,None,pp_04_1,icub,clamp,2021_Dec_21_1241,exp,2021.2.3,59.92873084319928,
left,stop,0,0,0,0,7,0,42,2,237.8225610256195,None,1,0.7369790077209473,237.8225610256195,None,238.6809310913086,None,239.68952918052673,240.04697799682617,239.68952918052673,240.04697799682617,238.6809310913086,None,238.6809310913086,None,238.6809310913086,None,400,350,0,True,101.72557830810547,849.0679264068604,left,241.5318410396576,None,pp_04_1,icub,clamp,2021_Dec_21_1241,exp,2021.2.3,59.92873084319928,
left,go,0,0,0,0,7,1,43,0,242.03042221069336,None,1,0.7394890785217285,242.03042221069336,None,242.88011503219604,None,243.91003513336182,244.27255010604858,243.91003513336182,244.27255010604858,242.88011503219604,None,242.88011503219604,None,242.88011503219604,None,-1,-1,1,True,869.4088459014893,635.6568336486816,left,246.2657811641693,None,pp_04_1,icub,clamp,2021_Dec_21_1241,exp,2021.2.3,59.92873084319928,
left,stop,0,0,0,0,7,2,44,2,246.7943902015686,None,1,0.8176760673522949,246.7943902015686,None,247.70728397369385,None,248.73698115348816,249.08543705940247,248.73698115348816,249.08543705940247,247.70728397369385,None,247.70728397369385,None,247.70728397369385,None,350,350,1,True,503.1578540802002,-1.0,-1,253.10417318344116,None,pp_04_1,icub,clamp,2021_Dec_21_1241,exp,2021.2.3,59.92873084319928,
right,go,0,0,0,0,7,3,45,4,253.63566398620605,None,1,1.3418359756469727,253.63566398620605,None,255.11563801765442,None,256.1068639755249,256.4586911201477,256.1068639755249,256.4586911201477,255.11563801765442,None,255.11563801765442,None,255.11563801765442,None,-1,-1,1,True,529.8936367034912,717.261552810669,right,258.23408007621765,None,pp_04_1,icub,clamp,2021_Dec_21_1241,exp,2021.2.3,59.92873084319928,
left,go,0,0,0,0,7,4,46,0,258.7521970272064,None,1,0.7522611618041992,258.7521970272064,None,259.58765411376953,None,260.58272314071655,260.92702198028564,260.58272314071655,260.92702198028564,259.58765411376953,None,259.58765411376953,None,259.58765411376953,None,-1,-1,1,True,383.2523822784424,601.963996887207,left,262.4719741344452,None,pp_04_1,icub,clamp,2021_Dec_21_1241,exp,2021.2.3,59.92873084319928,
left,go,0,0,0,0,7,5,47,1,262.9921600818634,None,1,0.728813886642456,262.9921600818634,None,263.82961106300354,None,264.84142899513245,265.20090413093567,264.84142899513245,265.20090413093567,263.82961106300354,None,263.82961106300354,None,263.82961106300354,None,-1,-1,1,True,647.0246315002441,611.7289066314697,left,266.9896140098572,None,pp_04_1,icub,clamp,2021_Dec_21_1241,exp,2021.2.3,59.92873084319928,
right,stop,0,0,0,0,8,0,48,5,267.4917860031128,None,1,0.6859660148620605,267.4917860031128,None,268.2829830646515,None,269.3185021877289,269.6643559932709,269.3185021877289,269.6643559932709,268.2829830646515,None,268.2829830646515,None,268.2829830646515,None,400,350,1,True,536.3712310791016,-1.0,-1,273.7269470691681,None,pp_04_1,icub,clamp,2021_Dec_21_1241,exp,2021.2.3,59.92873084319928,
right,go,0,0,0,0,8,1,49,4,274.2584140300751,None,1,0.49692797660827637,274.2584140300751,None,274.8693690299988,None,275.8470211029053,276.188157081604,275.8470211029053,276.188157081604,274.8693690299988,None,274.8693690299988,None,274.8693690299988,None,-1,-1,1,True,500.2403259277344,631.3686370849609,right,277.8785560131073,None,pp_04_1,icub,clamp,2021_Dec_21_1241,exp,2021.2.3,59.92873084319928,
left,go,0,0,0,0,8,2,50,1,278.4124011993408,None,1,0.7705669403076172,278.4124011993408,None,279.26317501068115,None,280.29663920402527,280.6371741294861,280.29663920402527,280.6371741294861,279.26317501068115,None,279.26317501068115,None,279.26317501068115,None,-1,-1,1,True,629.6641826629639,556.6105842590332,left,282.3501150608063,None,pp_04_1,icub,clamp,2021_Dec_21_1241,exp,2021.2.3,59.92873084319928,
right,go,0,0,0,0,8,3,51,3,282.84947419166565,None,1,0.9054100513458252,282.84947419166565,None,283.88389897346497,None,284.88434410095215,285.22152400016785,284.88434410095215,285.22152400016785,283.88389897346497,None,283.88389897346497,None,283.88389897346497,None,-1,-1,1,True,653.9626121520996,546.5686321258545,right,286.9835011959076,None,pp_04_1,icub,clamp,2021_Dec_21_1241,exp,2021.2.3,59.92873084319928,
right,go,0,0,0,0,8,4,52,4,287.496630191803,None,1,0.7525079250335693,287.496630191803,None,288.3448851108551,None,289.34025406837463,289.676735162735,289.34025406837463,289.676735162735,288.3448851108551,None,288.3448851108551,None,288.3448851108551,None,-1,-1,1,True,428.7846088409424,576.4565467834473,right,291.21553111076355,None,pp_04_1,icub,clamp,2021_Dec_21_1241,exp,2021.2.3,59.92873084319928,
right,go,0,0,0,0,8,5,53,3,291.72859621047974,None,1,0.7209980487823486,291.72859621047974,None,292.57746410369873,None,293.56921911239624,293.9153242111206,293.56921911239624,293.9153242111206,292.57746410369873,None,292.57746410369873,None,292.57746410369873,None,-1,-1,1,True,340.49177169799805,835.0162506103516,right,295.63999104499817,None,pp_04_1,icub,clamp,2021_Dec_21_1241,exp,2021.2.3,59.92873084319928,
left,stop,0,0,0,0,9,0,54,2,296.1491811275482,None,1,0.8319480419158936,296.1491811275482,None,297.061665058136,None,298.0786759853363,298.4390790462494,298.0786759853363,298.4390790462494,297.061665058136,None,297.061665058136,None,297.061665058136,None,400,400,0,True,113.44766616821289,830.1267623901367,left,299.91695404052734,None,pp_04_1,icub,clamp,2021_Dec_21_1241,exp,2021.2.3,59.92873084319928,
right,go,0,0,0,0,9,1,55,3,300.4177529811859,None,1,2.415894031524658,300.4177529811859,None,302.93906021118164,None,303.93753814697266,304.2967321872711,303.93753814697266,304.2967321872711,302.93906021118164,None,302.93906021118164,None,302.93906021118164,None,-1,-1,1,True,477.3566722869873,609.9851131439209,right,305.9214460849762,None,pp_04_1,icub,clamp,2021_Dec_21_1241,exp,2021.2.3,59.92873084319928,
left,go,0,0,0,0,9,2,56,1,306.4215199947357,None,1,0.8982858657836914,306.4215199947357,None,307.3954231739044,None,308.39444518089294,308.75493812561035,308.39444518089294,308.75493812561035,307.3954231739044,None,307.3954231739044,None,307.3954231739044,None,-1,-1,1,True,421.42581939697266,530.9145450592041,left,310.2299711704254,None,pp_04_1,icub,clamp,2021_Dec_21_1241,exp,2021.2.3,59.92873084319928,
left,go,0,0,0,0,9,3,57,0,310.74726009368896,None,1,0.6080689430236816,310.74726009368896,None,311.47460412979126,None,312.47189021110535,312.80862617492676,312.47189021110535,312.80862617492676,311.47460412979126,None,311.47460412979126,None,311.47460412979126,None,-1,-1,1,True,426.3641834259033,487.4920845031738,left,314.275514125824,None,pp_04_1,icub,clamp,2021_Dec_21_1241,exp,2021.2.3,59.92873084319928,
right,go,0,0,0,0,9,4,58,4,314.78060007095337,None,1,0.5660569667816162,314.78060007095337,None,315.44844102859497,None,316.4583270549774,316.79162216186523,316.4583270549774,316.79162216186523,315.44844102859497,None,315.44844102859497,None,315.44844102859497,None,-1,-1,1,True,466.62425994873047,504.6970844268799,right,318.29203701019287,None,pp_04_1,icub,clamp,2021_Dec_21_1241,exp,2021.2.3,59.92873084319928,
left,go,0,0,0,0,9,5,59,1,318.8138930797577,None,1,0.4770190715789795,318.8138930797577,None,319.40471720695496,None,320.4069859981537,320.75902915000916,320.4069859981537,320.75902915000916,319.40471720695496,None,319.40471720695496,None,319.40471720695496,None,-1,-1,1,True,498.3828067779541,509.5477104187012,left,322.3139190673828,None,pp_04_1,icub,clamp,2021_Dec_21_1241,exp,2021.2.3,59.92873084319928,
left,go,0,0,0,0,10,0,60,1,322.831356048584,None,1,0.49406886100769043,322.831356048584,None,323.43483805656433,None,324.46431708335876,324.7892961502075,324.46431708335876,324.7892961502075,323.43483805656433,None,323.43483805656433,None,323.43483805656433,None,-1,-1,1,True,474.83229637145996,580.467700958252,left,326.3655891418457,None,pp_04_1,icub,clamp,2021_Dec_21_1241,exp,2021.2.3,59.92873084319928,
right,go,0,0,0,0,10,1,61,3,326.88804817199707,None,1,0.5135741233825684,326.88804817199707,None,327.5301570892334,None,328.56285214424133,328.930162191391,328.56285214424133,328.930162191391,327.5301570892334,None,327.5301570892334,None,327.5301570892334,None,-1,-1,1,True,750.4684925079346,583.2839012145996,right,330.7432150840759,None,pp_04_1,icub,clamp,2021_Dec_21_1241,exp,2021.2.3,59.92873084319928,
left,stop,0,0,0,0,10,2,62,2,331.25680804252625,None,1,0.5052430629730225,331.25680804252625,None,331.8590281009674,None,332.85597801208496,333.20618510246277,332.85597801208496,333.20618510246277,331.8590281009674,None,331.8590281009674,None,331.8590281009674,None,350,400,0,True,484.0700626373291,574.1569995880127,left,334.83398699760437,None,pp_04_1,icub,clamp,2021_Dec_21_1241,exp,2021.2.3,59.92873084319928,
right,stop,0,0,0,0,10,3,63,5,335.35096311569214,None,1,0.7074689865112305,335.35096311569214,None,336.144002199173,None,337.1656720638275,337.52108502388,337.1656720638275,337.52108502388,336.144002199173,None,336.144002199173,None,336.144002199173,None,300,400,1,True,493.6027526855469,-1.0,-1,341.5442740917206,None,pp_04_1,icub,clamp,2021_Dec_21_1241,exp,2021.2.3,59.92873084319928,
left,go,0,0,0,0,10,4,64,1,342.03792214393616,None,1,0.8097820281982422,342.03792214393616,None,342.9218821525574,None,343.94400215148926,344.30252718925476,343.94400215148926,344.30252718925476,342.9218821525574,None,342.9218821525574,None,342.9218821525574,None,-1,-1,1,True,428.802490234375,515.6867504119873,left,345.7696499824524,None,pp_04_1,icub,clamp,2021_Dec_21_1241,exp,2021.2.3,59.92873084319928,
left,go,0,0,0,0,10,5,65,1,346.2944920063019,None,1,0.7808709144592285,346.2944920063019,None,347.1710000038147,None,348.17724204063416,348.5243670940399,348.17724204063416,348.5243670940399,347.1710000038147,None,347.1710000038147,None,347.1710000038147,None,-1,-1,1,True,398.31018447875977,612.830638885498,left,350.06149101257324,None,pp_04_1,icub,clamp,2021_Dec_21_1241,exp,2021.2.3,59.92873084319928,
right,go,0,0,0,0,11,0,66,3,350.55616998672485,None,1,0.593026876449585,350.55616998672485,None,351.2470932006836,None,352.2711901664734,352.6162910461426,352.2711901664734,352.6162910461426,351.2470932006836,None,351.2470932006836,None,351.2470932006836,None,-1,-1,1,True,452.864408493042,546.9355583190918,right,354.14077401161194,None,pp_04_1,icub,clamp,2021_Dec_21_1241,exp,2021.2.3,59.92873084319928,
left,go,0,0,0,0,11,1,67,1,354.6705150604248,None,1,0.7629199028015137,354.6705150604248,None,355.52412700653076,None,356.5162580013275,356.8729190826416,356.5162580013275,356.8729190826416,355.52412700653076,None,355.52412700653076,None,355.52412700653076,None,-1,-1,1,True,435.4534149169922,580.592155456543,left,358.40786600112915,None,pp_04_1,icub,clamp,2021_Dec_21_1241,exp,2021.2.3,59.92873084319928,
right,go,0,0,0,0,11,2,68,3,358.9329891204834,None,1,0.4452061653137207,358.9329891204834,None,359.4688491821289,None,360.4764940738678,360.8335521221161,360.4764940738678,360.8335521221161,359.4688491821289,None,359.4688491821289,None,359.4688491821289,None,-1,-1,1,True,664.4315719604492,525.1712799072266,right,362.5471160411835,None,pp_04_1,icub,clamp,2021_Dec_21_1241,exp,2021.2.3,59.92873084319928,
left,stop,0,0,0,0,11,3,69,2,363.0517580509186,None,1,0.5907108783721924,363.0517580509186,None,363.7178530693054,None,364.72023606300354,365.0451982021332,364.72023606300354,365.0451982021332,363.7178530693054,None,363.7178530693054,None,363.7178530693054,None,300,450,0,True,414.65163230895996,556.0812950134277,left,366.59082102775574,None,pp_04_1,icub,clamp,2021_Dec_21_1241,exp,2021.2.3,59.92873084319928,
right,stop,0,0,0,0,11,4,70,5,367.107271194458,None,1,0.778810977935791,367.107271194458,None,367.96169900894165,None,368.9835500717163,369.347421169281,368.9835500717163,369.347421169281,367.96169900894165,None,367.96169900894165,None,367.96169900894165,None,250,450,0,True,469.724178314209,583.7216377258301,right,370.8825399875641,None,pp_04_1,icub,clamp,2021_Dec_21_1241,exp,2021.2.3,59.92873084319928,
right,go,0,0,0,0,11,5,71,3,371.39568614959717,None,1,0.45831894874572754,371.39568614959717,None,371.93952202796936,None,372.9629771709442,373.31233620643616,372.9629771709442,373.31233620643616,371.93952202796936,None,371.93952202796936,None,371.93952202796936,None,-1,-1,1,True,399.4104862213135,523.4739780426025,right,374.75625109672546,None,pp_04_1,icub,clamp,2021_Dec_21_1241,exp,2021.2.3,59.92873084319928,
left,stop,0,0,0,0,12,0,72,2,375.2746751308441,None,1,0.5095441341400146,375.2746751308441,None,375.86864709854126,None,376.8952569961548,377.23846912384033,376.8952569961548,377.23846912384033,375.86864709854126,None,375.86864709854126,None,375.86864709854126,None,250,400,1,True,411.53430938720703,-1.0,-1,381.1720390319824,None,pp_04_1,icub,clamp,2021_Dec_21_1241,exp,2021.2.3,59.92873084319928,
right,stop,0,0,0,0,12,1,73,5,381.70250606536865,None,1,0.3832077980041504,381.70250606536865,None,382.19167613983154,None,383.1917450428009,383.54934906959534,383.1917450428009,383.54934906959534,382.19167613983154,None,382.19167613983154,None,382.19167613983154,None,300,400,1,True,343.25337409973145,-1.0,-1,387.4051330089569,None,pp_04_1,icub,clamp,2021_Dec_21_1241,exp,2021.2.3,59.92873084319928,
right,go,0,0,0,0,12,2,74,4,387.9376721382141,None,1,0.49407291412353516,387.9376721382141,None,388.54910016059875,None,389.52853417396545,389.8848671913147,389.52853417396545,389.8848671913147,388.54910016059875,None,388.54910016059875,None,388.54910016059875,None,-1,-1,1,True,266.7255401611328,552.3695945739746,right,391.2714149951935,None,pp_04_1,icub,clamp,2021_Dec_21_1241,exp,2021.2.3,59.92873084319928,
left,stop,0,0,0,0,12,3,75,2,391.78849601745605,None,1,0.7235860824584961,391.78849601745605,None,392.63526916503906,None,393.6640901565552,394.01870918273926,393.6640901565552,394.01870918273926,392.63526916503906,None,392.63526916503906,None,392.63526916503906,None,300,450,1,True,492.05684661865234,-1.0,-1,398.0387670993805,None,pp_04_1,icub,clamp,2021_Dec_21_1241,exp,2021.2.3,59.92873084319928,
left,stop,0,0,0,0,12,4,76,2,398.5695240497589,None,1,0.5661051273345947,398.5695240497589,None,399.24421310424805,None,400.22389817237854,400.5545279979706,400.22389817237854,400.5545279979706,399.24421310424805,None,399.24421310424805,None,399.24421310424805,None,350,450,0,True,327.6987075805664,507.02762603759766,left,401.9676191806793,None,pp_04_1,icub,clamp,2021_Dec_21_1241,exp,2021.2.3,59.92873084319928,
left,go,0,0,0,0,12,5,77,0,402.47431111335754,None,1,0.8876287937164307,402.47431111335754,None,403.45247316360474,None,404.4816482067108,404.8367040157318,404.4816482067108,404.8367040157318,403.45247316360474,None,403.45247316360474,None,403.45247316360474,None,-1,-1,1,True,396.88634872436523,615.7114505767822,left,406.3456840515137,None,pp_04_1,icub,clamp,2021_Dec_21_1241,exp,2021.2.3,59.92873084319928,
right,stop,1,0,1,0,0,0,0,5,424.0641300678253,None,1,16.076531171798706,424.0641300678253,None,440.21590209007263,None,441.2161982059479,441.57074213027954,441.2161982059479,441.57074213027954,440.21590209007263,None,440.21590209007263,None,440.21590209007263,None,300,450,0,True,377.4986267089844,587.1696472167969,right,443.0637950897217,None,pp_04_1,icub,clamp,2021_Dec_21_1241,exp,2021.2.3,59.92873084319928,
left,go,1,0,1,0,0,1,1,1,443.5708041191101,None,1,0.5164918899536133,443.5708041191101,None,444.17265605926514,None,445.20226407051086,445.5637080669403,445.20226407051086,445.5637080669403,444.17265605926514,None,444.17265605926514,None,444.17265605926514,None,-1,-1,1,True,278.7942886352539,564.812421798706,left,446.9054880142212,None,pp_04_1,icub,clamp,2021_Dec_21_1241,exp,2021.2.3,59.92873084319928,
left,stop,1,0,1,0,0,2,2,2,447.4062511920929,None,1,0.5366370677947998,447.4062511920929,None,448.0714361667633,None,449.0904281139374,449.4475111961365,449.0904281139374,449.4475111961365,448.0714361667633,None,448.0714361667633,None,448.0714361667633,None,300,400,1,True,442.333459854126,-1.0,-1,453.4091742038727,None,pp_04_1,icub,clamp,2021_Dec_21_1241,exp,2021.2.3,59.92873084319928,
right,stop,1,0,1,0,0,3,3,5,453.9407641887665,None,1,0.542510986328125,453.9407641887665,None,454.6146631240845,None,455.59836411476135,455.96489000320435,455.59836411476135,455.96489000320435,454.6146631240845,None,454.6146631240845,None,454.6146631240845,None,350,400,1,True,455.9366703033447,-1.0,-1,459.9515051841736,None,pp_04_1,icub,clamp,2021_Dec_21_1241,exp,2021.2.3,59.92873084319928,
left,go,1,0,1,0,0,4,4,1,460.4821660518646,None,1,0.6681098937988281,460.4821660518646,None,461.28060507774353,None,462.26100611686707,462.5996780395508,462.26100611686707,462.5996780395508,461.28060507774353,None,461.28060507774353,None,461.28060507774353,None,-1,-1,1,True,422.957181930542,543.6029434204102,left,464.1257610321045,None,pp_04_1,icub,clamp,2021_Dec_21_1241,exp,2021.2.3,59.92873084319928,
left,go,1,0,1,0,0,5,5,0,464.63948702812195,None,1,0.8131699562072754,464.63948702812195,None,465.5535821914673,None,466.5744581222534,466.9048330783844,466.5744581222534,466.9048330783844,465.5535821914673,None,465.5535821914673,None,465.5535821914673,None,-1,-1,1,True,560.828685760498,511.793851852417,left,468.5380711555481,None,pp_04_1,icub,clamp,2021_Dec_21_1241,exp,2021.2.3,59.92873084319928,
right,go,1,0,1,0,1,0,6,3,469.057391166687,None,1,0.7072300910949707,469.057391166687,None,469.8401930332184,None,470.85109400749207,471.2096321582794,470.85109400749207,471.2096321582794,469.8401930332184,None,469.8401930332184,None,469.8401930332184,None,-1,-1,1,True,548.8977432250977,596.1873531341553,right,472.8801851272583,None,pp_04_1,icub,clamp,2021_Dec_21_1241,exp,2021.2.3,59.92873084319928,
right,go,1,0,1,0,1,1,7,3,473.395632982254,None,1,0.6427130699157715,473.395632982254,None,474.16188406944275,None,475.1803960800171,475.5386230945587,475.1803960800171,475.5386230945587,474.16188406944275,None,474.16188406944275,None,474.16188406944275,None,-1,-1,1,True,458.57954025268555,571.2511539459229,right,477.10140800476074,None,pp_04_1,icub,clamp,2021_Dec_21_1241,exp,2021.2.3,59.92873084319928,
right,go,1,0,1,0,1,2,8,3,477.6172959804535,None,1,0.6344308853149414,477.6172959804535,None,478.34247612953186,None,479.3701710700989,479.7124500274658,479.3701710700989,479.7124500274658,478.34247612953186,None,478.34247612953186,None,478.34247612953186,None,-1,-1,1,True,322.11828231811523,555.6356906890869,right,481.09411811828613,None,pp_04_1,icub,clamp,2021_Dec_21_1241,exp,2021.2.3,59.92873084319928,
left,go,1,0,1,0,1,3,9,1,481.6080250740051,None,1,0.660599946975708,481.6080250740051,None,482.3961651325226,None,483.40754199028015,483.7662031650543,483.40754199028015,483.7662031650543,482.3961651325226,None,482.3961651325226,None,482.3961651325226,None,-1,-1,1,True,416.66126251220703,690.3896331787109,left,485.40257000923157,None,pp_04_1,icub,clamp,2021_Dec_21_1241,exp,2021.2.3,59.92873084319928,
left,go,1,0,1,0,1,4,10,1,485.90482211112976,None,1,0.6413741111755371,485.90482211112976,None,486.63181018829346,None,487.665580034256,488.0248041152954,487.665580034256,488.0248041152954,486.63181018829346,None,486.63181018829346,None,486.63181018829346,None,-1,-1,1,True,422.88804054260254,580.8734893798828,left,489.5174009799957,None,pp_04_1,icub,clamp,2021_Dec_21_1241,exp,2021.2.3,59.92873084319928,
left,go,1,0,1,0,1,5,11,0,490.0502030849457,None,1,0.7992031574249268,490.0502030849457,None,490.965763092041,None,491.97727608680725,492.32000517845154,491.97727608680725,492.32000517845154,490.965763092041,None,490.965763092041,None,490.965763092041,None,-1,-1,1,True,391.4024829864502,523.5958099365234,left,493.7615270614624,None,pp_04_1,icub,clamp,2021_Dec_21_1241,exp,2021.2.3,59.92873084319928,
right,stop,1,0,1,0,2,0,12,5,494.281996011734,None,1,0.6296448707580566,494.281996011734,None,495.00736904144287,None,496.03215312957764,496.38354110717773,496.03215312957764,496.38354110717773,495.00736904144287,None,495.00736904144287,None,495.00736904144287,None,350,450,0,True,368.43037605285645,586.4424705505371,right,497.85829401016235,None,pp_04_1,icub,clamp,2021_Dec_21_1241,exp,2021.2.3,59.92873084319928,
right,go,1,0,1,0,2,1,13,4,498.3778841495514,None,1,0.9928600788116455,498.3778841495514,None,499.4780201911926,None,500.4781332015991,500.8208420276642,500.4781332015991,500.8208420276642,499.4780201911926,None,499.4780201911926,None,499.4780201911926,None,-1,-1,1,True,385.6234550476074,669.142484664917,right,502.4107291698456,None,pp_04_1,icub,clamp,2021_Dec_21_1241,exp,2021.2.3,59.92873084319928,
left,go,1,0,1,0,2,2,14,0,502.90922808647156,None,1,0.5326058864593506,502.90922808647156,None,503.5169460773468,None,504.513090133667,504.8454999923706,504.513090133667,504.8454999923706,503.5169460773468,None,503.5169460773468,None,503.5169460773468,None,-1,-1,1,True,131.60467147827148,585.8094692230225,left,506.12454414367676,None,pp_04_1,icub,clamp,2021_Dec_21_1241,exp,2021.2.3,59.92873084319928,
right,go,1,0,1,0,2,3,15,3,506.65318417549133,None,1,0.6282200813293457,506.65318417549133,None,507.356849193573,None,508.3783781528473,508.73698115348816,508.3783781528473,508.73698115348816,507.356849193573,None,507.356849193573,None,507.356849193573,None,-1,-1,1,True,298.40540885925293,533.8613986968994,right,510.05910301208496,None,pp_04_1,icub,clamp,2021_Dec_21_1241,exp,2021.2.3,59.92873084319928,
left,go,1,0,1,0,2,4,16,0,510.5796401500702,None,1,0.5196831226348877,510.5796401500702,None,511.2127242088318,None,512.223048210144,512.5640799999237,512.223048210144,512.5640799999237,511.2127242088318,None,511.2127242088318,None,511.2127242088318,None,-1,-1,1,True,247.8337287902832,578.6473751068115,left,513.9240610599518,None,pp_04_1,icub,clamp,2021_Dec_21_1241,exp,2021.2.3,59.92873084319928,
right,go,1,0,1,0,2,5,17,4,514.4427180290222,None,1,0.510890007019043,514.4427180290222,None,515.0493230819702,None,516.0775570869446,516.4206380844116,516.0775570869446,516.4206380844116,515.0493230819702,None,515.0493230819702,None,515.0493230819702,None,-1,-1,1,True,99.37763214111328,552.0265102386475,right,517.6029770374298,None,pp_04_1,icub,clamp,2021_Dec_21_1241,exp,2021.2.3,59.92873084319928,
left,stop,1,0,1,0,3,0,18,2,518.113480091095,None,1,0.6510159969329834,518.113480091095,None,518.8399941921234,None,519.8546671867371,520.2067680358887,519.8546671867371,520.2067680358887,518.8399941921234,None,518.8399941921234,None,518.8399941921234,None,350,400,1,True,47.95527458190918,-1.0,-1,523.7751660346985,None,pp_04_1,icub,clamp,2021_Dec_21_1241,exp,2021.2.3,59.92873084319928,
left,stop,1,0,1,0,3,1,19,2,524.3053569793701,None,1,0.6645660400390625,524.3053569793701,None,525.1028599739075,None,526.1136431694031,526.4642281532288,526.1136431694031,526.4642281532288,525.1028599739075,None,525.1028599739075,None,525.1028599739075,None,,,0,False,-1.0,-1.0,-1,526.6910691261292,None,pp_04_1,icub,clamp,2021_Dec_21_1241,exp,2021.2.3,59.92873084319928,
right,stop,1,0,1,0,3,2,20,5,527.2150530815125,None,1,2.9424099922180176,527.2150530815125,None,530.2481331825256,None,None,None,None,None,530.2481331825256,None,530.2481331825256,None,530.2481331825256,None,,,0,False,-1.0,-1.0,-1,530.4162731170654,None,pp_04_1,icub,clamp,2021_Dec_21_1241,exp,2021.2.3,59.92873084319928,
right,go,1,0,1,0,3,3,21,4,530.9486451148987,None,1,1.0693471431732178,530.9486451148987,None,532.1175670623779,None,533.0984671115875,533.4553411006927,533.0984671115875,533.4553411006927,532.1175670623779,None,532.1175670623779,None,532.1175670623779,None,-1,-1,1,True,775.4144668579102,533.4656238555908,right,535.3112101554871,None,pp_04_1,icub,clamp,2021_Dec_21_1241,exp,2021.2.3,59.92873084319928,
right,go,1,0,1,0,3,4,22,4,535.828773021698,None,1,0.9317188262939453,535.828773021698,None,536.8649580478668,None,537.8703181743622,538.2289190292358,537.8703181743622,538.2289190292358,536.8649580478668,None,536.8649580478668,None,536.8649580478668,None,-1,-1,1,True,463.5629653930664,649.3782997131348,right,539.8593370914459,None,pp_04_1,icub,clamp,2021_Dec_21_1241,exp,2021.2.3,59.92873084319928,
right,stop,1,0,1,0,3,5,23,5,540.3781840801239,None,1,0.7585451602935791,540.3781840801239,None,541.2274739742279,None,542.2363851070404,542.591912984848,542.2363851070404,542.591912984848,541.2274739742279,None,541.2274739742279,None,541.2274739742279,None,400,400,1,True,415.0998592376709,-1.0,-1,546.5163321495056,None,pp_04_1,icub,clamp,2021_Dec_21_1241,exp,2021.2.3,59.92873084319928,
right,go,1,0,1,0,4,0,24,3,547.0486750602722,None,1,0.843134880065918,547.0486750602722,None,547.9708211421967,None,548.951541185379,549.3077080249786,548.951541185379,549.3077080249786,547.9708211421967,None,547.9708211421967,None,547.9708211421967,None,-1,-1,1,True,734.8132133483887,596.6646671295166,right,551.1668591499329,None,pp_04_1,icub,clamp,2021_Dec_21_1241,exp,2021.2.3,59.92873084319928,
right,go,1,0,1,0,4,1,25,3,551.6854660511017,None,1,0.7228078842163086,551.6854660511017,None,552.5334310531616,None,553.5582211017609,553.9120101928711,553.5582211017609,553.9120101928711,552.5334310531616,None,552.5334310531616,None,552.5334310531616,None,-1,-1,1,True,620.0973987579346,609.9414825439453,right,555.672924041748,None,pp_04_1,icub,clamp,2021_Dec_21_1241,exp,2021.2.3,59.92873084319928,
right,stop,1,0,1,0,4,2,26,5,556.1868159770966,None,1,0.6723928451538086,556.1868159770966,None,556.9784550666809,None,557.9905350208282,558.3455309867859,557.9905350208282,558.3455309867859,556.9784550666809,None,556.9784550666809,None,556.9784550666809,None,400,450,0,True,373.83556365966797,618.7906265258789,right,559.8750200271606,None,pp_04_1,icub,clamp,2021_Dec_21_1241,exp,2021.2.3,59.92873084319928,
left,stop,1,0,1,0,4,3,27,2,560.3707141876221,None,1,0.7630550861358643,560.3707141876221,None,561.2143070697784,None,562.2203750610352,562.5724101066589,562.2203750610352,562.5724101066589,561.2143070697784,None,561.2143070697784,None,561.2143070697784,None,400,400,1,True,489.61353302001953,-1.0,-1,566.6135339736938,None,pp_04_1,icub,clamp,2021_Dec_21_1241,exp,2021.2.3,59.92873084319928,
left,stop,1,0,1,0,4,4,28,2,567.1080090999603,None,1,0.7077679634094238,567.1080090999603,None,567.9055299758911,None,568.8825612068176,569.2489709854126,568.8825612068176,569.2489709854126,567.9055299758911,None,567.9055299758911,None,567.9055299758911,None,450,400,1,True,357.43117332458496,-1.0,-1,573.138622045517,None,pp_04_1,icub,clamp,2021_Dec_21_1241,exp,2021.2.3,59.92873084319928,
right,stop,1,0,1,0,4,5,29,5,573.6689870357513,None,1,2.589651107788086,573.6689870357513,None,576.3834249973297,None,577.3637762069702,577.7173550128937,577.3637762069702,577.7173550128937,576.3834249973297,None,576.3834249973297,None,576.3834249973297,None,500,400,1,True,405.2560329437256,-1.0,-1,581.6827030181885,None,pp_04_1,icub,clamp,2021_Dec_21_1241,exp,2021.2.3,59.92873084319928,
left,go,1,0,1,0,5,0,30,0,582.214035987854,None,1,0.4302639961242676,582.214035987854,None,582.741473197937,None,583.7382390499115,584.0889921188354,583.7382390499115,584.0889921188354,582.741473197937,None,582.741473197937,None,582.741473197937,None,-1,-1,1,True,626.922607421875,786.5450382232666,left,586.0258181095123,None,pp_04_1,icub,clamp,2021_Dec_21_1241,exp,2021.2.3,59.92873084319928,
right,stop,1,0,1,0,5,1,31,5,586.5404191017151,None,1,0.7056319713592529,586.5404191017151,None,587.3734431266785,None,588.381872177124,588.7443280220032,588.381872177124,588.7443280220032,587.3734431266785,None,587.3734431266785,None,587.3734431266785,None,500,450,0,True,469.73133087158203,689.246416091919,right,590.4138011932373,None,pp_04_1,icub,clamp,2021_Dec_21_1241,exp,2021.2.3,59.92873084319928,
left,go,1,0,1,0,5,2,32,0,590.9164071083069,None,1,0.8196959495544434,590.9164071083069,None,591.8114910125732,None,592.805459022522,593.1568331718445,592.805459022522,593.1568331718445,591.8114910125732,None,591.8114910125732,None,591.8114910125732,None,-1,-1,1,True,446.5756416320801,655.7142734527588,left,594.8205230236053,None,pp_04_1,icub,clamp,2021_Dec_21_1241,exp,2021.2.3,59.92873084319928,
left,stop,1,0,1,0,5,3,33,2,595.327831029892,None,1,0.6173529624938965,595.327831029892,None,596.0547530651093,None,597.06081199646,597.4292180538177,597.06081199646,597.4292180538177,596.0547530651093,None,596.0547530651093,None,596.0547530651093,None,500,400,1,True,477.8943061828613,-1.0,-1,601.4379801750183,None,pp_04_1,icub,clamp,2021_Dec_21_1241,exp,2021.2.3,59.92873084319928,
left,stop,1,0,1,0,5,4,34,2,601.9715089797974,None,1,0.4720180034637451,601.9715089797974,None,602.5832080841064,None,603.5539062023163,603.906476020813,603.5539062023163,603.906476020813,602.5832080841064,None,602.5832080841064,None,602.5832080841064,None,550,400,0,True,358.6461544036865,565.3550624847412,left,605.394513130188,None,pp_04_1,icub,clamp,2021_Dec_21_1241,exp,2021.2.3,59.92873084319928,
right,go,1,0,1,0,5,5,35,4,605.9017419815063,None,1,1.6378319263458252,605.9017419815063,None,607.6199231147766,None,608.6251790523529,608.9681310653687,608.6251790523529,608.9681310653687,607.6199231147766,None,607.6199231147766,None,607.6199231147766,None,-1,-1,1,True,700.2148628234863,605.9765815734863,right,610.8396620750427,None,pp_04_1,icub,clamp,2021_Dec_21_1241,exp,2021.2.3,59.92873084319928,
left,go,1,0,1,0,6,0,36,1,611.3571791648865,None,1,0.5359370708465576,611.3571791648865,None,612.0210690498352,None,613.0490272045135,613.40700507164,613.0490272045135,613.40700507164,612.0210690498352,None,612.0210690498352,None,612.0210690498352,None,-1,-1,1,True,243.42584609985352,624.8869895935059,left,614.7927401065826,None,pp_04_1,icub,clamp,2021_Dec_21_1241,exp,2021.2.3,59.92873084319928,
left,go,1,0,1,0,6,1,37,0,615.2971701622009,None,1,0.7315418720245361,615.2971701622009,None,616.1363310813904,None,617.1502861976624,617.4921832084656,617.1502861976624,617.4921832084656,616.1363310813904,None,616.1363310813904,None,616.1363310813904,None,-1,-1,1,True,436.9223117828369,590.1644229888916,left,619.0642650127411,None,pp_04_1,icub,clamp,2021_Dec_21_1241,exp,2021.2.3,59.92873084319928,
left,go,1,0,1,0,6,2,38,1,619.5814321041107,None,1,0.6799769401550293,619.5814321041107,None,620.3516311645508,None,621.3553152084351,621.7046911716461,621.3553152084351,621.7046911716461,620.3516311645508,None,620.3516311645508,None,620.3516311645508,None,-1,-1,1,True,371.26612663269043,636.2106800079346,left,623.2387461662292,None,pp_04_1,icub,clamp,2021_Dec_21_1241,exp,2021.2.3,59.92873084319928,
right,stop,1,0,1,0,6,3,39,5,623.7552981376648,None,1,0.5834429264068604,623.7552981376648,None,624.4143400192261,None,625.4320781230927,625.7973301410675,625.4320781230927,625.7973301410675,624.4143400192261,None,624.4143400192261,None,624.4143400192261,None,500,400,0,True,406.97646141052246,628.3454895019531,right,627.3296530246735,None,pp_04_1,icub,clamp,2021_Dec_21_1241,exp,2021.2.3,59.92873084319928,
right,stop,1,0,1,0,6,4,40,5,627.8307731151581,None,1,0.687122106552124,627.8307731151581,None,628.6193001270294,None,629.6232390403748,629.9705061912537,629.6232390403748,629.9705061912537,628.6193001270294,None,628.6193001270294,None,628.6193001270294,None,500,350,1,True,689.1543865203857,-1.0,-1,634.1999361515045,None,pp_04_1,icub,clamp,2021_Dec_21_1241,exp,2021.2.3,59.92873084319928,
right,stop,1,0,1,0,6,5,41,5,634.692862033844,None,1,0.991461992263794,634.692862033844,None,635.8004710674286,None,636.7762579917908,637.1199350357056,636.7762579917908,637.1199350357056,635.8004710674286,None,635.8004710674286,None,635.8004710674286,None,500,400,1,True,647.0115184783936,-1.0,-1,641.3396871089935,None,pp_04_1,icub,clamp,2021_Dec_21_1241,exp,2021.2.3,59.92873084319928,
right,go,1,0,1,0,7,0,42,4,641.8706350326538,None,1,0.8766560554504395,641.8706350326538,None,642.8557360172272,None,643.8385691642761,644.1960091590881,643.8385691642761,644.1960091590881,642.8557360172272,None,642.8557360172272,None,642.8557360172272,None,-1,-1,1,True,451.3225555419922,692.2848224639893,right,645.8980669975281,None,pp_04_1,icub,clamp,2021_Dec_21_1241,exp,2021.2.3,59.92873084319928,
left,go,1,0,1,0,7,1,43,1,646.4161310195923,None,1,0.6071169376373291,646.4161310195923,None,647.1400091648102,None,648.1490650177002,648.4960169792175,648.1490650177002,648.4960169792175,647.1400091648102,None,647.1400091648102,None,647.1400091648102,None,-1,-1,1,True,551.6002178192139,687.4418258666992,left,650.2565400600433,None,pp_04_1,icub,clamp,2021_Dec_21_1241,exp,2021.2.3,59.92873084319928,
left,go,1,0,1,0,7,2,44,1,650.7768921852112,None,1,0.8060579299926758,650.7768921852112,None,651.6939680576324,None,652.7002580165863,653.0576541423798,652.7002580165863,653.0576541423798,651.6939680576324,None,651.6939680576324,None,651.6939680576324,None,-1,-1,1,True,507.1678161621094,702.5375366210938,left,654.7974619865417,None,pp_04_1,icub,clamp,2021_Dec_21_1241,exp,2021.2.3,59.92873084319928,
left,stop,1,0,1,0,7,3,45,2,655.3013269901276,None,1,0.6440029144287109,655.3013269901276,None,656.0309519767761,None,657.0600101947784,657.4201390743256,657.0600101947784,657.4201390743256,656.0309519767761,None,656.0309519767761,None,656.0309519767761,None,500,450,0,True,437.66307830810547,598.7911224365234,left,658.9531230926514,None,pp_04_1,icub,clamp,2021_Dec_21_1241,exp,2021.2.3,59.92873084319928,
left,go,1,0,1,0,7,4,46,1,659.4756891727448,None,1,0.6450760364532471,659.4756891727448,None,660.20130610466,None,661.2344629764557,661.5804810523987,661.2344629764557,661.5804810523987,660.20130610466,None,660.20130610466,None,660.20130610466,None,-1,-1,1,True,417.60706901550293,576.1532783508301,left,663.0684661865234,None,pp_04_1,icub,clamp,2021_Dec_21_1241,exp,2021.2.3,59.92873084319928,
left,go,1,0,1,0,7,5,47,0,663.5682141780853,None,1,0.6698839664459229,663.5682141780853,None,664.3573870658875,None,665.366592168808,665.7266089916229,665.366592168808,665.7266089916229,664.3573870658875,None,664.3573870658875,None,664.3573870658875,None,-1,-1,1,True,362.6115322113037,541.0919189453125,left,667.1611740589142,None,pp_04_1,icub,clamp,2021_Dec_21_1241,exp,2021.2.3,59.92873084319928,
right,go,1,0,1,0,8,0,48,3,667.6623511314392,None,1,0.642707109451294,667.6623511314392,None,668.3902711868286,None,669.4121370315552,669.7655789852142,669.4121370315552,669.7655789852142,668.3902711868286,None,668.3902711868286,None,668.3902711868286,None,-1,-1,1,True,468.48344802856445,546.7612743377686,right,671.3119320869446,None,pp_04_1,icub,clamp,2021_Dec_21_1241,exp,2021.2.3,59.92873084319928,
right,go,1,0,1,0,8,1,49,4,671.8291420936584,None,1,0.5076310634613037,671.8291420936584,None,672.4384350776672,None,673.43492603302,673.7970571517944,673.43492603302,673.7970571517944,672.4384350776672,None,672.4384350776672,None,672.4384350776672,None,-1,-1,1,True,494.91357803344727,588.2618427276611,right,675.4040200710297,None,pp_04_1,icub,clamp,2021_Dec_21_1241,exp,2021.2.3,59.92873084319928,
right,go,1,0,1,0,8,2,50,4,675.9162700176239,None,1,0.5583670139312744,675.9162700176239,None,676.5751111507416,None,677.5745911598206,677.9294140338898,677.5745911598206,677.9294140338898,676.5751111507416,None,676.5751111507416,None,676.5751111507416,None,-1,-1,1,True,368.1907653808594,582.8828811645508,right,679.4088912010193,None,pp_04_1,icub,clamp,2021_Dec_21_1241,exp,2021.2.3,59.92873084319928,
right,go,1,0,1,0,8,3,51,4,679.909900188446,None,1,0.5411069393157959,679.909900188446,None,680.5655901432037,None,681.5972270965576,681.9431149959564,681.5972270965576,681.9431149959564,680.5655901432037,None,680.5655901432037,None,680.5655901432037,None,-1,-1,1,True,354.386568069458,606.7812442779541,right,683.4311101436615,None,pp_04_1,icub,clamp,2021_Dec_21_1241,exp,2021.2.3,59.92873084319928,
right,go,1,0,1,0,8,4,52,3,683.9379370212555,None,1,0.5594987869262695,683.9379370212555,None,684.6025500297546,None,685.6208350658417,685.9578311443329,685.6208350658417,685.9578311443329,684.6025500297546,None,684.6025500297546,None,684.6025500297546,None,-1,-1,1,True,431.027889251709,627.0651817321777,right,687.5340270996094,None,pp_04_1,icub,clamp,2021_Dec_21_1241,exp,2021.2.3,59.92873084319928,
left,stop,1,0,1,0,8,5,53,2,688.034285068512,None,1,0.926934003829956,688.034285068512,None,689.0702791213989,None,690.0959041118622,690.445317029953,690.0959041118622,690.445317029953,689.0702791213989,None,689.0702791213989,None,689.0702791213989,None,450,450,0,True,320.1618194580078,639.4176483154297,left,691.9401841163635,None,pp_04_1,icub,clamp,2021_Dec_21_1241,exp,2021.2.3,59.92873084319928,
right,stop,1,0,1,0,9,0,54,5,692.4604930877686,None,1,1.9976420402526855,692.4604930877686,None,694.5486280918121,None,695.5748150348663,695.9279570579529,695.5748150348663,695.9279570579529,694.5486280918121,None,694.5486280918121,None,694.5486280918121,None,400,450,0,True,406.38256072998047,654.0908813476562,right,697.5085241794586,None,pp_04_1,icub,clamp,2021_Dec_21_1241,exp,2021.2.3,59.92873084319928,
left,go,1,0,1,0,9,1,55,0,698.0167181491852,None,1,0.7568919658660889,698.0167181491852,None,698.8687090873718,None,699.8738751411438,700.2464079856873,699.8738751411438,700.2464079856873,698.8687090873718,None,698.8687090873718,None,698.8687090873718,None,-1,-1,1,True,494.1115379333496,696.1781978607178,left,701.9644820690155,None,pp_04_1,icub,clamp,2021_Dec_21_1241,exp,2021.2.3,59.92873084319928,
right,go,1,0,1,0,9,2,56,3,702.4824531078339,None,1,0.5341570377349854,702.4824531078339,None,703.1440131664276,None,704.1686379909515,704.4898781776428,704.1686379909515,704.4898781776428,703.1440131664276,None,703.1440131664276,None,703.1440131664276,None,-1,-1,1,True,717.0906066894531,477.7522087097168,right,706.2402420043945,None,pp_04_1,icub,clamp,2021_Dec_21_1241,exp,2021.2.3,59.92873084319928,
left,go,1,0,1,0,9,3,57,1,706.7597620487213,None,1,0.6297869682312012,706.7597620487213,None,707.479917049408,None,708.5056581497192,708.8414750099182,708.5056581497192,708.8414750099182,707.479917049408,None,707.479917049408,None,707.479917049408,None,-1,-1,1,True,408.89549255371094,526.7071723937988,left,710.2911632061005,None,pp_04_1,icub,clamp,2021_Dec_21_1241,exp,2021.2.3,59.92873084319928,
left,stop,1,0,1,0,9,4,58,2,710.8068161010742,None,1,0.7174868583679199,710.8068161010742,None,711.6575109958649,None,712.668564081192,713.0241000652313,712.668564081192,713.0241000652313,711.6575109958649,None,711.6575109958649,None,711.6575109958649,None,400,400,0,True,384.6111297607422,503.89623641967773,left,714.4469101428986,None,pp_04_1,icub,clamp,2021_Dec_21_1241,exp,2021.2.3,59.92873084319928,
left,go,1,0,1,0,9,5,59,0,714.9640471935272,None,1,0.5481860637664795,714.9640471935272,None,715.6283271312714,None,716.6443581581116,716.9998819828033,716.6443581581116,716.9998819828033,715.6283271312714,None,715.6283271312714,None,715.6283271312714,None,-1,-1,1,True,471.1451530456543,618.7708377838135,left,718.6213130950928,None,pp_04_1,icub,clamp,2021_Dec_21_1241,exp,2021.2.3,59.92873084319928,
right,stop,1,0,1,0,10,0,60,5,719.1422400474548,None,1,0.6409239768981934,719.1422400474548,None,719.8689260482788,None,720.8960590362549,721.256735086441,720.8960590362549,721.256735086441,719.8689260482788,None,719.8689260482788,None,719.8689260482788,None,350,400,0,True,298.31790924072266,594.9945449829102,right,722.6428020000458,None,pp_04_1,icub,clamp,2021_Dec_21_1241,exp,2021.2.3,59.92873084319928,
left,go,1,0,1,0,10,1,61,1,723.1425371170044,None,1,0.5742340087890625,723.1425371170044,None,723.8056650161743,None,724.8148241043091,725.1700491905212,724.8148241043091,725.1700491905212,723.8056650161743,None,723.8056650161743,None,723.8056650161743,None,-1,-1,1,True,335.2997303009033,548.4638214111328,left,726.5894570350647,None,pp_04_1,icub,clamp,2021_Dec_21_1241,exp,2021.2.3,59.92873084319928,
right,go,1,0,1,0,10,2,62,4,727.1009771823883,None,1,0.6565179824829102,727.1009771823883,None,727.886598110199,None,728.899523973465,729.2340700626373,728.899523973465,729.2340700626373,727.886598110199,None,727.886598110199,None,727.886598110199,None,-1,-1,1,True,449.6428966522217,547.2800731658936,right,730.7582139968872,None,pp_04_1,icub,clamp,2021_Dec_21_1241,exp,2021.2.3,59.92873084319928,
left,go,1,0,1,0,10,3,63,0,731.2745311260223,None,1,0.6016919612884521,731.2745311260223,None,731.9997651576996,None,733.0138251781464,733.3359611034393,733.0138251781464,733.3359611034393,731.9997651576996,None,731.9997651576996,None,731.9997651576996,None,-1,-1,1,True,371.19150161743164,569.951057434082,left,734.8374891281128,None,pp_04_1,icub,clamp,2021_Dec_21_1241,exp,2021.2.3,59.92873084319928,
right,go,1,0,1,0,10,4,64,3,735.3535120487213,None,1,0.4747130870819092,735.3535120487213,None,735.9559199810028,None,736.9602041244507,737.2880940437317,736.9602041244507,737.2880940437317,735.9559199810028,None,735.9559199810028,None,735.9559199810028,None,-1,-1,1,True,359.4086170196533,534.6717834472656,right,738.7608711719513,None,pp_04_1,icub,clamp,2021_Dec_21_1241,exp,2021.2.3,59.92873084319928,
left,go,1,0,1,0,10,5,65,0,739.2751770019531,None,1,0.518834114074707,739.2751770019531,None,739.8795351982117,None,740.8967521190643,741.2418971061707,740.8967521190643,741.2418971061707,739.8795351982117,None,739.8795351982117,None,739.8795351982117,None,-1,-1,1,True,348.09350967407227,551.7327785491943,left,742.6728541851044,None,pp_04_1,icub,clamp,2021_Dec_21_1241,exp,2021.2.3,59.92873084319928,
right,go,1,0,1,0,11,0,66,3,743.1867251396179,None,1,0.6493959426879883,743.1867251396179,None,743.9165241718292,None,744.9403309822083,745.2834801673889,744.9403309822083,745.2834801673889,743.9165241718292,None,743.9165241718292,None,743.9165241718292,None,-1,-1,1,True,363.17968368530273,549.8495101928711,right,746.7178990840912,None,pp_04_1,icub,clamp,2021_Dec_21_1241,exp,2021.2.3,59.92873084319928,
right,go,1,0,1,0,11,1,67,3,747.2247960567474,None,1,0.5635871887207031,747.2247960567474,None,747.892657995224,None,748.889701128006,749.245857000351,748.889701128006,749.245857000351,747.892657995224,None,747.892657995224,None,747.892657995224,None,-1,-1,1,True,258.24761390686035,599.7030735015869,right,750.6303391456604,None,pp_04_1,icub,clamp,2021_Dec_21_1241,exp,2021.2.3,59.92873084319928,
left,stop,1,0,1,0,11,2,68,2,751.1370711326599,None,1,0.7430920600891113,751.1370711326599,None,751.9867742061615,None,752.9895861148834,753.3268661499023,752.9895861148834,753.3268661499023,751.9867742061615,None,751.9867742061615,None,751.9867742061615,None,350,350,0,True,269.442081451416,570.1601505279541,left,754.7328159809113,None,pp_04_1,icub,clamp,2021_Dec_21_1241,exp,2021.2.3,59.92873084319928,
right,go,1,0,1,0,11,3,69,4,755.2508599758148,None,1,1.6247599124908447,755.2508599758148,None,756.9670140743256,None,757.997819185257,758.3635311126709,757.997819185257,758.3635311126709,756.9670140743256,None,756.9670140743256,None,756.9670140743256,None,-1,-1,1,True,320.4033374786377,584.9628448486328,right,759.7629330158234,None,pp_04_1,icub,clamp,2021_Dec_21_1241,exp,2021.2.3,59.92873084319928,
left,go,1,0,1,0,11,4,70,1,760.267774105072,None,1,0.807042121887207,760.267774105072,None,761.1815621852875,None,762.1807091236115,762.5317480564117,762.1807091236115,762.5317480564117,761.1815621852875,None,761.1815621852875,None,761.1815621852875,None,-1,-1,1,True,149.60527420043945,571.9952583312988,left,763.7797980308533,None,pp_04_1,icub,clamp,2021_Dec_21_1241,exp,2021.2.3,59.92873084319928,
left,stop,1,0,1,0,11,5,71,2,764.2917251586914,None,1,0.5865061283111572,764.2917251586914,None,764.9586181640625,None,765.9803941249847,766.3240790367126,765.9803941249847,766.3240790367126,764.9586181640625,None,764.9586181640625,None,764.9586181640625,None,300,350,0,True,283.3855152130127,552.4036884307861,left,767.6846830844879,None,pp_04_1,icub,clamp,2021_Dec_21_1241,exp,2021.2.3,59.92873084319928,
right,go,1,0,1,0,12,0,72,3,768.2115390300751,None,1,0.5532948970794678,768.2115390300751,None,768.8738350868225,None,769.9076101779938,770.2358231544495,769.9076101779938,770.2358231544495,768.8738350868225,None,768.8738350868225,None,768.8738350868225,None,-1,-1,1,True,358.74247550964355,563.0991458892822,right,771.6838810443878,None,pp_04_1,icub,clamp,2021_Dec_21_1241,exp,2021.2.3,59.92873084319928,
left,go,1,0,1,0,12,1,73,0,772.1860620975494,None,1,0.5639510154724121,772.1860620975494,None,772.8514230251312,None,773.8505661487579,774.205283164978,773.8505661487579,774.205283164978,772.8514230251312,None,772.8514230251312,None,772.8514230251312,None,-1,-1,1,True,276.5054702758789,483.7193489074707,left,775.4963371753693,None,pp_04_1,icub,clamp,2021_Dec_21_1241,exp,2021.2.3,59.92873084319928,
right,go,1,0,1,0,12,2,74,4,776.0176680088043,None,1,0.6987109184265137,776.0176680088043,None,776.8071331977844,None,777.8024020195007,778.1391551494598,777.8024020195007,778.1391551494598,776.8071331977844,None,776.8071331977844,None,776.8071331977844,None,-1,-1,1,True,429.0885925292969,535.5775356292725,right,779.6708290576935,None,pp_04_1,icub,clamp,2021_Dec_21_1241,exp,2021.2.3,59.92873084319928,
left,go,1,0,1,0,12,3,75,1,780.1705341339111,None,1,0.8144869804382324,780.1705341339111,None,781.0866050720215,None,782.0986080169678,782.459480047226,782.0986080169678,782.459480047226,781.0866050720215,None,781.0866050720215,None,781.0866050720215,None,-1,-1,1,True,428.5149574279785,551.6445636749268,left,783.9613461494446,None,pp_04_1,icub,clamp,2021_Dec_21_1241,exp,2021.2.3,59.92873084319928,
left,stop,1,0,1,0,12,4,76,2,784.495090007782,None,1,0.5718131065368652,784.495090007782,None,785.1624341011047,None,786.1643750667572,786.5199530124664,786.1643750667572,786.5199530124664,785.1624341011047,None,785.1624341011047,None,785.1624341011047,None,250,350,1,True,373.3656406402588,-1.0,-1,790.413978099823,None,pp_04_1,icub,clamp,2021_Dec_21_1241,exp,2021.2.3,59.92873084319928,
right,go,1,0,1,0,12,5,77,4,790.9462130069733,None,1,2.0743567943573,790.9462130069733,None,793.1056621074677,None,794.0790791511536,794.4488091468811,794.0790791511536,794.4488091468811,793.1056621074677,None,793.1056621074677,None,793.1056621074677,None,-1,-1,1,True,350.9848117828369,673.4626293182373,right,796.0275571346283,None,pp_04_1,icub,clamp,2021_Dec_21_1241,exp,2021.2.3,59.92873084319928,
right,stop,2,0,2,0,0,0,0,5,819.1208031177521,None,1,9.62699818611145,819.1208031177521,None,828.8558781147003,None,829.8550531864166,830.2205040454865,829.8550531864166,830.2205040454865,828.8558781147003,None,828.8558781147003,None,828.8558781147003,None,300,350,0,True,396.6689109802246,612.3623847961426,right,831.7424759864807,None,pp_04_1,icub,clamp,2021_Dec_21_1241,exp,2021.2.3,59.92873084319928,
left,go,2,0,2,0,0,1,1,0,832.2388889789581,None,1,0.7677648067474365,832.2388889789581,None,833.0871450901031,None,834.0807890892029,834.442794084549,834.0807890892029,834.442794084549,833.0871450901031,None,833.0871450901031,None,833.0871450901031,None,-1,-1,1,True,364.2849922180176,547.4002361297607,left,835.9036390781403,None,pp_04_1,icub,clamp,2021_Dec_21_1241,exp,2021.2.3,59.92873084319928,
right,stop,2,0,2,0,0,2,2,5,836.4217410087585,None,1,0.665226936340332,836.4217410087585,None,837.2105951309204,None,838.20934009552,838.5746030807495,838.20934009552,838.5746030807495,837.2105951309204,None,837.2105951309204,None,837.2105951309204,None,300,300,0,True,897.3526954650879,581.7105770111084,right,840.5825099945068,None,pp_04_1,icub,clamp,2021_Dec_21_1241,exp,2021.2.3,59.92873084319928,
left,stop,2,0,2,0,0,3,3,2,841.1135439872742,None,1,0.5270838737487793,841.1135439872742,None,841.7212471961975,None,842.725399017334,843.0895690917969,842.725399017334,843.0895690917969,841.7212471961975,None,841.7212471961975,None,841.7212471961975,None,300,250,1,True,283.1296920776367,-1.0,-1,846.8877000808716,None,pp_04_1,icub,clamp,2021_Dec_21_1241,exp,2021.2.3,59.92873084319928,
left,stop,2,0,2,0,0,4,4,2,847.3820750713348,None,1,0.45635485649108887,847.3820750713348,None,847.9322390556335,None,848.9139080047607,849.274313211441,848.9139080047607,849.274313211441,847.9322390556335,None,847.9322390556335,None,847.9322390556335,None,350,250,1,True,221.99058532714844,-1.0,-1,853.02259516716,None,pp_04_1,icub,clamp,2021_Dec_21_1241,exp,2021.2.3,59.92873084319928,
right,go,2,0,2,0,0,5,5,3,853.5543160438538,None,1,0.6548540592193604,853.5543160438538,None,854.3436710834503,None,855.3249809741974,855.6678411960602,855.3249809741974,855.6678411960602,854.3436710834503,None,854.3436710834503,None,854.3436710834503,None,-1,-1,1,True,463.6678695678711,532.0816040039062,right,857.2337641716003,None,pp_04_1,icub,clamp,2021_Dec_21_1241,exp,2021.2.3,59.92873084319928,
left,go,2,0,2,0,1,0,6,0,857.7482039928436,None,1,0.7111458778381348,857.7482039928436,None,858.5771691799164,None,859.5804581642151,859.9300401210785,859.5804581642151,859.9300401210785,858.5771691799164,None,858.5771691799164,None,858.5771691799164,None,-1,-1,1,True,414.58988189697266,671.1428165435791,left,861.5475671291351,None,pp_04_1,icub,clamp,2021_Dec_21_1241,exp,2021.2.3,59.92873084319928,
left,stop,2,0,2,0,1,1,7,2,862.0624530315399,None,1,0.6952559947967529,862.0624530315399,None,862.8532919883728,None,863.8675019741058,864.2294189929962,863.8675019741058,864.2294189929962,862.8532919883728,None,862.8532919883728,None,862.8532919883728,None,400,250,0,True,364.11166191101074,573.2524394989014,left,865.702653169632,None,pp_04_1,icub,clamp,2021_Dec_21_1241,exp,2021.2.3,59.92873084319928,
right,go,2,0,2,0,1,2,8,3,866.2334790229797,None,1,0.5060019493103027,866.2334790229797,None,866.8408579826355,None,867.8446772098541,868.2053442001343,867.8446772098541,868.2053442001343,866.8408579826355,None,866.8408579826355,None,866.8408579826355,None,-1,-1,1,True,415.41409492492676,668.7097549438477,right,869.8169741630554,None,pp_04_1,icub,clamp,2021_Dec_21_1241,exp,2021.2.3,59.92873084319928,
right,go,2,0,2,0,1,3,9,3,870.3239350318909,None,1,0.5966849327087402,870.3239350318909,None,871.048956155777,None,872.0616590976715,872.4051511287689,872.0616590976715,872.4051511287689,871.048956155777,None,871.048956155777,None,871.048956155777,None,-1,-1,1,True,400.42901039123535,594.5451259613037,right,873.9283452033997,None,pp_04_1,icub,clamp,2021_Dec_21_1241,exp,2021.2.3,59.92873084319928,
right,stop,2,0,2,0,1,4,10,5,874.4474639892578,None,1,0.6601130962371826,874.4474639892578,None,875.2353990077972,None,876.2622292041779,876.6025161743164,876.2622292041779,876.6025161743164,875.2353990077972,None,875.2353990077972,None,875.2353990077972,None,350,250,1,True,435.8329772949219,-1.0,-1,880.5522880554199,None,pp_04_1,icub,clamp,2021_Dec_21_1241,exp,2021.2.3,59.92873084319928,
right,stop,2,0,2,0,1,5,11,5,881.0842690467834,None,1,0.6518158912658691,881.0842690467834,None,881.8202841281891,None,882.7915539741516,883.1421780586243,882.7915539741516,883.1421780586243,881.8202841281891,None,881.8202841281891,None,881.8202841281891,None,350,300,1,True,267.4994468688965,-1.0,-1,886.979483127594,None,pp_04_1,icub,clamp,2021_Dec_21_1241,exp,2021.2.3,59.92873084319928,
left,go,2,0,2,0,2,0,12,0,887.5112020969391,None,1,0.8385820388793945,887.5112020969391,None,888.4531481266022,None,889.4479620456696,889.8034830093384,889.4479620456696,889.8034830093384,888.4531481266022,None,888.4531481266022,None,888.4531481266022,None,-1,-1,1,True,424.8461723327637,761.6045475006104,left,891.5213091373444,None,pp_04_1,icub,clamp,2021_Dec_21_1241,exp,2021.2.3,59.92873084319928,
left,stop,2,0,2,0,2,1,13,2,892.0220630168915,None,1,0.627316951751709,892.0220630168915,None,892.7487781047821,None,893.7546730041504,894.104483127594,893.7546730041504,894.104483127594,892.7487781047821,None,892.7487781047821,None,892.7487781047821,None,350,350,0,True,291.4247512817383,544.1324710845947,left,895.4841730594635,None,pp_04_1,icub,clamp,2021_Dec_21_1241,exp,2021.2.3,59.92873084319928,
right,go,2,0,2,0,2,2,14,4,895.9962911605835,None,1,0.5870361328125,895.9962911605835,None,896.6639289855957,None,897.6947901248932,898.0601680278778,897.6947901248932,898.0601680278778,896.6639289855957,None,896.6639289855957,None,896.6639289855957,None,-1,-1,1,True,406.97312355041504,672.173261642456,right,899.6341361999512,None,pp_04_1,icub,clamp,2021_Dec_21_1241,exp,2021.2.3,59.92873084319928,
left,stop,2,0,2,0,2,3,15,2,900.1490201950073,None,1,0.5375139713287354,900.1490201950073,None,900.8142352104187,None,901.8361601829529,902.1679801940918,901.8361601829529,902.1679801940918,900.8142352104187,None,900.8142352104187,None,900.8142352104187,None,300,350,1,True,334.5801830291748,-1.0,-1,906.027134180069,None,pp_04_1,icub,clamp,2021_Dec_21_1241,exp,2021.2.3,59.92873084319928,
right,stop,2,0,2,0,2,4,16,5,906.5596890449524,None,1,0.38727784156799316,906.5596890449524,None,907.048742055893,None,908.0173811912537,908.3690991401672,908.0173811912537,908.3690991401672,907.048742055893,None,907.048742055893,None,907.048742055893,None,,,0,False,3001.1136531829834,-1.0,-1,911.9397490024567,None,pp_04_1,icub,clamp,2021_Dec_21_1241,exp,2021.2.3,59.92873084319928,
right,go,2,0,2,0,2,5,17,4,912.434130191803,None,1,0.7261600494384766,912.434130191803,None,913.283045053482,None,914.2891881465912,914.6479740142822,914.2891881465912,914.6479740142822,913.283045053482,None,913.283045053482,None,913.283045053482,None,-1,-1,1,True,424.11303520202637,757.0457458496094,right,916.3643481731415,None,pp_04_1,icub,clamp,2021_Dec_21_1241,exp,2021.2.3,59.92873084319928,
right,stop,2,0,2,0,3,0,18,5,916.8868541717529,None,1,0.824530839920044,916.8868541717529,None,917.7998521327972,None,918.825569152832,919.1698060035706,918.825569152832,919.1698060035706,917.7998521327972,None,917.7998521327972,None,917.7998521327972,None,350,350,0,True,869.6315288543701,811.044454574585,right,921.3600251674652,None,pp_04_1,icub,clamp,2021_Dec_21_1241,exp,2021.2.3,59.92873084319928,
right,go,2,0,2,0,3,1,19,4,921.877984046936,None,1,1.271601915359497,921.877984046936,None,923.277202129364,None,924.2914471626282,924.6180610656738,924.2914471626282,924.6180610656738,923.277202129364,None,923.277202129364,None,923.277202129364,None,-1,-1,1,True,693.1302547454834,701.8914222717285,right,926.5541090965271,None,pp_04_1,icub,clamp,2021_Dec_21_1241,exp,2021.2.3,59.92873084319928,
right,go,2,0,2,0,3,2,20,4,927.0566210746765,None,1,0.6157290935516357,927.0566210746765,None,927.7768530845642,None,928.8088819980621,929.1533081531525,928.8088819980621,929.1533081531525,927.7768530845642,None,927.7768530845642,None,927.7768530845642,None,-1,-1,1,True,368.43299865722656,632.3132514953613,right,930.6870901584625,None,pp_04_1,icub,clamp,2021_Dec_21_1241,exp,2021.2.3,59.92873084319928,
right,stop,2,0,2,0,3,3,21,5,931.2124090194702,None,1,0.5690739154815674,931.2124090194702,None,931.89865899086,None,932.9263691902161,933.2796070575714,932.9263691902161,933.2796070575714,931.89865899086,None,931.89865899086,None,931.89865899086,None,350,300,1,True,123.00491333007812,-1.0,-1,936.9243941307068,None,pp_04_1,icub,clamp,2021_Dec_21_1241,exp,2021.2.3,59.92873084319928,
right,go,2,0,2,0,3,4,22,3,937.4561960697174,None,1,0.7385749816894531,937.4561960697174,None,938.3165349960327,None,939.2968220710754,939.6682841777802,939.2968220710754,939.6682841777802,938.3165349960327,None,938.3165349960327,None,938.3165349960327,None,-1,-1,1,True,335.3559970855713,565.3114318847656,right,941.0987591743469,None,pp_04_1,icub,clamp,2021_Dec_21_1241,exp,2021.2.3,59.92873084319928,
right,go,2,0,2,0,3,5,23,4,941.6099631786346,None,1,0.6491889953613281,941.6099631786346,None,942.3399691581726,None,943.3697991371155,943.7147212028503,943.3697991371155,943.7147212028503,942.3399691581726,None,942.3399691581726,None,942.3399691581726,None,-1,-1,1,True,767.2035694122314,726.4702320098877,right,945.7274720668793,None,pp_04_1,icub,clamp,2021_Dec_21_1241,exp,2021.2.3,59.92873084319928,
left,go,2,0,2,0,4,0,24,0,946.2326099872589,None,1,0.5435760021209717,946.2326099872589,None,946.8998901844025,None,947.9001920223236,948.2451741695404,947.9001920223236,948.2451741695404,946.8998901844025,None,946.8998901844025,None,946.8998901844025,None,-1,-1,1,True,304.69799041748047,745.4631328582764,left,949.85391497612,None,pp_04_1,icub,clamp,2021_Dec_21_1241,exp,2021.2.3,59.92873084319928,
left,go,2,0,2,0,4,1,25,1,950.3867321014404,None,1,0.6566650867462158,950.3867321014404,None,951.1660711765289,None,952.1999871730804,952.5453310012817,952.1999871730804,952.5453310012817,951.1660711765289,None,951.1660711765289,None,951.1660711765289,None,-1,-1,1,True,366.18900299072266,560.1749420166016,left,953.9866971969604,None,pp_04_1,icub,clamp,2021_Dec_21_1241,exp,2021.2.3,59.92873084319928,
left,go,2,0,2,0,4,2,26,1,954.5116531848907,None,1,0.7396121025085449,954.5116531848907,None,955.358106136322,None,956.361191034317,956.7087631225586,956.361191034317,956.7087631225586,955.358106136322,None,955.358106136322,None,955.358106136322,None,-1,-1,1,True,327.27837562561035,580.7342529296875,left,958.1486320495605,None,pp_04_1,icub,clamp,2021_Dec_21_1241,exp,2021.2.3,59.92873084319928,
left,go,2,0,2,0,4,3,27,1,958.6640441417694,None,1,0.6230220794677734,958.6640441417694,None,959.3932511806488,None,960.4244351387024,960.7681980133057,960.4244351387024,960.7681980133057,959.3932511806488,None,959.3932511806488,None,959.3932511806488,None,-1,-1,1,True,314.0530586242676,653.8491249084473,left,962.2642750740051,None,pp_04_1,icub,clamp,2021_Dec_21_1241,exp,2021.2.3,59.92873084319928,
right,go,2,0,2,0,4,4,28,3,962.7821021080017,None,1,0.630396842956543,962.7821021080017,None,963.5022101402283,None,964.5322470664978,964.880942106247,964.5322470664978,964.880942106247,963.5022101402283,None,963.5022101402283,None,963.5022101402283,None,-1,-1,1,True,456.33888244628906,660.905122756958,right,966.5194041728973,None,pp_04_1,icub,clamp,2021_Dec_21_1241,exp,2021.2.3,59.92873084319928,
right,go,2,0,2,0,4,5,29,4,967.0393080711365,None,1,0.668921947479248,967.0393080711365,None,967.8279230594635,None,968.8265080451965,969.1695640087128,968.8265080451965,969.1695640087128,967.8279230594635,None,967.8279230594635,None,967.8279230594635,None,-1,-1,1,True,392.42029190063477,596.0385799407959,right,970.7274210453033,None,pp_04_1,icub,clamp,2021_Dec_21_1241,exp,2021.2.3,59.92873084319928,
right,stop,2,0,2,0,5,0,30,5,971.228677034378,None,1,0.5913209915161133,971.228677034378,None,971.8952281475067,None,972.9060142040253,973.2605500221252,972.9060142040253,973.2605500221252,971.8952281475067,None,971.8952281475067,None,971.8952281475067,None,350,350,0,True,258.49103927612305,585.8514308929443,right,974.6330201625824,None,pp_04_1,icub,clamp,2021_Dec_21_1241,exp,2021.2.3,59.92873084319928,
left,go,2,0,2,0,5,1,31,0,975.1338059902191,None,1,1.2350220680236816,975.1338059902191,None,976.4774701595306,None,977.4802021980286,977.837131023407,977.4802021980286,977.837131023407,976.4774701595306,None,976.4774701595306,None,976.4774701595306,None,-1,-1,1,True,308.39991569519043,573.1501579284668,left,979.2511022090912,None,pp_04_1,icub,clamp,2021_Dec_21_1241,exp,2021.2.3,59.92873084319928,
right,go,2,0,2,0,5,2,32,4,979.7822091579437,None,1,0.5477018356323242,979.7822091579437,None,980.4488971233368,None,981.4670951366425,981.8063681125641,981.4670951366425,981.8063681125641,980.4488971233368,None,980.4488971233368,None,980.4488971233368,None,-1,-1,1,True,295.4893112182617,562.4315738677979,right,983.1908571720123,None,pp_04_1,icub,clamp,2021_Dec_21_1241,exp,2021.2.3,59.92873084319928,
right,stop,2,0,2,0,5,3,33,5,983.6937110424042,None,1,0.5532548427581787,983.6937110424042,None,984.36305809021,None,985.3936460018158,985.7530491352081,985.3936460018158,985.7530491352081,984.36305809021,None,984.36305809021,None,984.36305809021,None,350,300,0,True,292.19746589660645,521.3503837585449,right,987.0549349784851,None,pp_04_1,icub,clamp,2021_Dec_21_1241,exp,2021.2.3,59.92873084319928,
right,stop,2,0,2,0,5,4,34,5,987.5625519752502,None,1,0.505486011505127,987.5625519752502,None,988.1693561077118,None,989.2029461860657,989.564532995224,989.2029461860657,989.564532995224,988.1693561077118,None,988.1693561077118,None,988.1693561077118,None,350,250,1,True,339.96033668518066,-1.0,-1,993.3890151977539,None,pp_04_1,icub,clamp,2021_Dec_21_1241,exp,2021.2.3,59.92873084319928,
right,go,2,0,2,0,5,5,35,4,993.8830800056458,None,1,0.5154809951782227,993.8830800056458,None,994.4971871376038,None,995.4802920818329,995.8487792015076,995.4802920818329,995.8487792015076,994.4971871376038,None,994.4971871376038,None,994.4971871376038,None,-1,-1,1,True,299.2863655090332,585.9599113464355,right,997.2688081264496,None,pp_04_1,icub,clamp,2021_Dec_21_1241,exp,2021.2.3,59.92873084319928,
left,stop,2,0,2,0,6,0,36,2,997.7857110500336,None,1,0.5570619106292725,997.7857110500336,None,998.470381975174,None,999.4710211753845,999.8237090110779,999.4710211753845,999.8237090110779,998.470381975174,None,998.470381975174,None,998.470381975174,None,350,300,0,True,411.4658832550049,533.6730480194092,left,1001.3017761707306,None,pp_04_1,icub,clamp,2021_Dec_21_1241,exp,2021.2.3,59.92873084319928,
right,stop,2,0,2,0,6,1,37,5,1001.8159041404724,None,1,0.4741790294647217,1001.8159041404724,None,1002.4187371730804,None,1003.4144442081451,1003.7685720920563,1003.4144442081451,1003.7685720920563,1002.4187371730804,None,1002.4187371730804,None,1002.4187371730804,None,300,300,1,True,385.33496856689453,-1.0,-1,1007.6961090564728,None,pp_04_1,icub,clamp,2021_Dec_21_1241,exp,2021.2.3,59.92873084319928,
left,go,2,0,2,0,6,2,38,1,1008.1902770996094,None,1,3.8971099853515625,1008.1902770996094,None,1012.220605134964,None,1013.203898191452,1013.5540580749512,1013.203898191452,1013.5540580749512,1012.220605134964,None,1012.220605134964,None,1012.220605134964,None,-1,-1,1,True,329.9384117126465,599.2820262908936,left,1015.0533480644226,None,pp_04_1,icub,clamp,2021_Dec_21_1241,exp,2021.2.3,59.92873084319928,
right,go,2,0,2,0,6,3,39,3,1015.5813829898834,None,1,0.6987769603729248,1015.5813829898834,None,1016.3706710338593,None,1017.3891181945801,1017.7393810749054,1017.3891181945801,1017.7393810749054,1016.3706710338593,None,1016.3706710338593,None,1016.3706710338593,None,-1,-1,1,True,382.9689025878906,703.5915851593018,right,1019.3445739746094,None,pp_04_1,icub,clamp,2021_Dec_21_1241,exp,2021.2.3,59.92873084319928,
left,stop,2,0,2,0,6,4,40,2,1019.851389169693,None,1,0.7804689407348633,1019.851389169693,None,1020.7075130939484,None,1021.7011201381683,1022.0378630161285,1021.7011201381683,1022.0378630161285,1020.7075130939484,None,1020.7075130939484,None,1020.7075130939484,None,300,350,1,True,376.42765045166016,-1.0,-1,1025.9804441928864,None,pp_04_1,icub,clamp,2021_Dec_21_1241,exp,2021.2.3,59.92873084319928,
right,go,2,0,2,0,6,5,41,4,1026.5131051540375,None,1,0.49720096588134766,1026.5131051540375,None,1027.1263179779053,None,1028.109225988388,1028.4791131019592,1028.109225988388,1028.4791131019592,1027.1263179779053,None,1027.1263179779053,None,1027.1263179779053,None,-1,-1,1,True,90.45910835266113,694.8752403259277,right,1029.7962210178375,None,pp_04_1,icub,clamp,2021_Dec_21_1241,exp,2021.2.3,59.92873084319928,
right,go,2,0,2,0,7,0,42,3,1030.3076791763306,None,1,0.7430920600891113,1030.3076791763306,None,1031.1587960720062,None,1032.159847021103,1032.531620979309,1032.159847021103,1032.531620979309,1031.1587960720062,None,1031.1587960720062,None,1031.1587960720062,None,-1,-1,1,True,406.22472763061523,775.6547927856445,right,1034.2374320030212,None,pp_04_1,icub,clamp,2021_Dec_21_1241,exp,2021.2.3,59.92873084319928,
right,go,2,0,2,0,7,1,43,3,1034.75634598732,None,1,0.6822099685668945,1034.75634598732,None,1035.549160003662,None,1036.575366973877,1036.931499004364,1036.575366973877,1036.931499004364,1035.549160003662,None,1035.549160003662,None,1035.549160003662,None,-1,-1,1,True,327.94857025146484,674.9377250671387,right,1038.4235050678253,None,pp_04_1,icub,clamp,2021_Dec_21_1241,exp,2021.2.3,59.92873084319928,
left,go,2,0,2,0,7,2,44,0,1038.9549779891968,None,1,0.4405958652496338,1038.9549779891968,None,1039.4964950084686,None,1040.521828174591,1040.8705060482025,1040.521828174591,1040.8705060482025,1039.4964950084686,None,1039.4964950084686,None,1039.4964950084686,None,-1,-1,1,True,336.1029624938965,681.5698146820068,left,1042.4105470180511,None,pp_04_1,icub,clamp,2021_Dec_21_1241,exp,2021.2.3,59.92873084319928,
left,go,2,0,2,0,7,3,45,1,1042.9287931919098,None,1,0.5870728492736816,1042.9287931919098,None,1043.5961821079254,None,1044.58589220047,1044.9327561855316,1044.58589220047,1044.9327561855316,1043.5961821079254,None,1043.5961821079254,None,1043.5961821079254,None,-1,-1,1,True,147.8259563446045,623.1951713562012,left,1046.2691671848297,None,pp_04_1,icub,clamp,2021_Dec_21_1241,exp,2021.2.3,59.92873084319928,
left,stop,2,0,2,0,7,4,46,2,1046.771606206894,None,1,0.6530749797821045,1046.771606206894,None,1047.5001420974731,None,1048.5173361301422,1048.8707690238953,1048.5173361301422,1048.8707690238953,1047.5001420974731,None,1047.5001420974731,None,1047.5001420974731,None,350,350,1,True,264.359712600708,-1.0,-1,1052.6570391654968,None,pp_04_1,icub,clamp,2021_Dec_21_1241,exp,2021.2.3,59.92873084319928,
left,go,2,0,2,0,7,5,47,0,1053.1877810955048,None,1,0.3984100818634033,1053.1877810955048,None,1053.677407026291,None,1054.6614060401917,1055.0115461349487,1054.6614060401917,1055.0115461349487,1053.677407026291,None,1053.677407026291,None,1053.677407026291,None,-1,-1,1,True,261.61789894104004,595.646858215332,left,1056.4002041816711,None,pp_04_1,icub,clamp,2021_Dec_21_1241,exp,2021.2.3,59.92873084319928,
left,go,2,0,2,0,8,0,48,1,1056.9164199829102,None,1,0.5540511608123779,1056.9164199829102,None,1057.5819561481476,None,1058.605365037918,1058.9629430770874,1058.605365037918,1058.9629430770874,1057.5819561481476,None,1057.5819561481476,None,1057.5819561481476,None,-1,-1,1,True,181.50591850280762,685.7399940490723,left,1060.3347539901733,None,pp_04_1,icub,clamp,2021_Dec_21_1241,exp,2021.2.3,59.92873084319928,
left,go,2,0,2,0,8,1,49,1,1060.8563539981842,None,1,0.5642609596252441,1060.8563539981842,None,1061.5206801891327,None,1062.5306420326233,1062.8595440387726,1062.5306420326233,1062.8595440387726,1061.5206801891327,None,1061.5206801891327,None,1061.5206801891327,None,-1,-1,1,True,43.608665466308594,689.6696090698242,left,1064.1528451442719,None,pp_04_1,icub,clamp,2021_Dec_21_1241,exp,2021.2.3,59.92873084319928,
left,go,2,0,2,0,8,2,50,1,1064.6702280044556,None,1,0.6243999004364014,1064.6702280044556,None,1065.400974035263,None,1066.4150581359863,1066.7548160552979,1066.4150581359863,1066.7548160552979,1065.400974035263,None,1065.400974035263,None,1065.400974035263,None,-1,-1,1,True,292.4163341522217,566.838264465332,left,1068.1460840702057,None,pp_04_1,icub,clamp,2021_Dec_21_1241,exp,2021.2.3,59.92873084319928,
left,go,2,0,2,0,8,3,51,1,1068.6569271087646,None,1,0.6249079704284668,1068.6569271087646,None,1069.3838460445404,None,1070.4148371219635,1070.772854089737,1070.4148371219635,1070.772854089737,1069.3838460445404,None,1069.3838460445404,None,1069.3838460445404,None,-1,-1,1,True,199.97382164001465,637.9430294036865,left,1072.115735054016,None,pp_04_1,icub,clamp,2021_Dec_21_1241,exp,2021.2.3,59.92873084319928,
right,go,2,0,2,0,8,4,52,3,1072.6193490028381,None,1,0.6860718727111816,1072.6193490028381,None,1073.4100320339203,None,1074.4110891819,1074.7688310146332,1074.4110891819,1074.7688310146332,1073.4100320339203,None,1073.4100320339203,None,1073.4100320339203,None,-1,-1,1,True,360.1572513580322,611.2072467803955,right,1076.266939163208,None,pp_04_1,icub,clamp,2021_Dec_21_1241,exp,2021.2.3,59.92873084319928,
left,stop,2,0,2,0,8,5,53,2,1076.7821311950684,None,1,0.697476863861084,1076.7821311950684,None,1077.575543165207,None,1078.587541103363,1078.9374690055847,1078.587541103363,1078.9374690055847,1077.575543165207,None,1077.575543165207,None,1077.575543165207,None,400,350,0,True,232.24806785583496,700.4179954528809,left,1080.3874289989471,None,pp_04_1,icub,clamp,2021_Dec_21_1241,exp,2021.2.3,59.92873084319928,
right,go,2,0,2,0,9,0,54,3,1080.9098541736603,None,1,1.2366480827331543,1080.9098541736603,None,1082.2544140815735,None,1083.2802150249481,1083.615769147873,1083.2802150249481,1083.615769147873,1082.2544140815735,None,1082.2544140815735,None,1082.2544140815735,None,-1,-1,1,True,340.55614471435547,651.592493057251,right,1085.1442110538483,None,pp_04_1,icub,clamp,2021_Dec_21_1241,exp,2021.2.3,59.92873084319928,
left,stop,2,0,2,0,9,1,55,2,1085.6472129821777,None,1,0.8970520496368408,1085.6472129821777,None,1086.6246910095215,None,1087.6310579776764,1087.9828810691833,1087.6310579776764,1087.9828810691833,1086.6246910095215,None,1086.6246910095215,None,1086.6246910095215,None,350,350,0,True,308.64763259887695,616.67799949646,left,1089.4343910217285,None,pp_04_1,icub,clamp,2021_Dec_21_1241,exp,2021.2.3,59.92873084319928,
left,go,2,0,2,0,9,2,56,1,1089.9449441432953,None,1,1.1373119354248047,1089.9449441432953,None,1091.170559167862,None,1092.2020750045776,1092.555281162262,1092.2020750045776,1092.555281162262,1091.170559167862,None,1091.170559167862,None,1091.170559167862,None,-1,-1,1,True,444.7948932647705,564.1486644744873,left,1094.0694301128387,None,pp_04_1,icub,clamp,2021_Dec_21_1241,exp,2021.2.3,59.92873084319928,
right,go,2,0,2,0,9,3,57,3,1094.585384130478,None,1,0.7016830444335938,1094.585384130478,None,1095.3779029846191,None,1096.3829290866852,1096.7219212055206,1096.3829290866852,1096.7219212055206,1095.3779029846191,None,1095.3779029846191,None,1095.3779029846191,None,-1,-1,1,True,428.6518096923828,576.6541957855225,right,1098.2556262016296,None,pp_04_1,icub,clamp,2021_Dec_21_1241,exp,2021.2.3,59.92873084319928,
right,go,2,0,2,0,9,4,58,4,1098.7596700191498,None,1,0.615894079208374,1098.7596700191498,None,1099.485428094864,None,1100.5117530822754,1100.8536851406097,1100.5117530822754,1100.8536851406097,1099.485428094864,None,1099.485428094864,None,1099.485428094864,None,-1,-1,1,True,337.7373218536377,612.1196746826172,right,1102.3299980163574,None,pp_04_1,icub,clamp,2021_Dec_21_1241,exp,2021.2.3,59.92873084319928,
left,go,2,0,2,0,9,5,59,0,1102.8473119735718,None,1,0.640017032623291,1102.8473119735718,None,1103.578294992447,None,1104.5701529979706,1104.9254729747772,1104.5701529979706,1104.9254729747772,1103.578294992447,None,1103.578294992447,None,1103.578294992447,None,-1,-1,1,True,289.3791198730469,617.389440536499,left,1106.3629431724548,None,pp_04_1,icub,clamp,2021_Dec_21_1241,exp,2021.2.3,59.92873084319928,
right,go,2,0,2,0,10,0,60,4,1106.8935761451721,None,1,0.6576800346374512,1106.8935761451721,None,1107.6793529987335,None,1108.6836731433868,1109.0379509925842,1108.6836731433868,1109.0379509925842,1107.6793529987335,None,1107.6793529987335,None,1107.6793529987335,None,-1,-1,1,True,351.20320320129395,590.9519195556641,right,1110.5141611099243,None,pp_04_1,icub,clamp,2021_Dec_21_1241,exp,2021.2.3,59.92873084319928,
left,go,2,0,2,0,10,1,61,0,1111.014778137207,None,1,0.6135590076446533,1111.014778137207,None,1111.7382180690765,None,1112.7476410865784,1113.1079730987549,1112.7476410865784,1113.1079730987549,1111.7382180690765,None,1111.7382180690765,None,1111.7382180690765,None,-1,-1,1,True,273.00453186035156,569.8931217193604,left,1114.4718821048737,None,pp_04_1,icub,clamp,2021_Dec_21_1241,exp,2021.2.3,59.92873084319928,
left,go,2,0,2,0,10,2,62,0,1114.977266073227,None,1,0.6909780502319336,1114.977266073227,None,1115.7692379951477,None,1116.7843689918518,1117.1313681602478,1116.7843689918518,1117.1313681602478,1115.7692379951477,None,1115.7692379951477,None,1115.7692379951477,None,-1,-1,1,True,282.9127311706543,600.6114482879639,left,1118.5290060043335,None,pp_04_1,icub,clamp,2021_Dec_21_1241,exp,2021.2.3,59.92873084319928,
left,go,2,0,2,0,10,3,63,1,1119.0436761379242,None,1,0.6425750255584717,1119.0436761379242,None,1119.7722380161285,None,1120.7746829986572,1121.1088650226593,1120.7746829986572,1121.1088650226593,1119.7722380161285,None,1119.7722380161285,None,1119.7722380161285,None,-1,-1,1,True,306.55360221862793,642.3606872558594,left,1122.6148660182953,None,pp_04_1,icub,clamp,2021_Dec_21_1241,exp,2021.2.3,59.92873084319928,
left,go,2,0,2,0,10,4,64,0,1123.1246190071106,None,1,0.6975901126861572,1123.1246190071106,None,1123.9169449806213,None,1124.9403841495514,1125.2779250144958,1124.9403841495514,1125.2779250144958,1123.9169449806213,None,1123.9169449806213,None,1123.9169449806213,None,-1,-1,1,True,158.677339553833,675.0965118408203,left,1126.6371731758118,None,pp_04_1,icub,clamp,2021_Dec_21_1241,exp,2021.2.3,59.92873084319928,
right,go,2,0,2,0,10,5,65,4,1127.1396520137787,None,1,0.7117550373077393,1127.1396520137787,None,1127.9319570064545,None,1128.9380280971527,1129.283902168274,1128.9380280971527,1129.283902168274,1127.9319570064545,None,1127.9319570064545,None,1127.9319570064545,None,-1,-1,1,True,328.50122451782227,654.5321941375732,right,1130.7988171577454,None,pp_04_1,icub,clamp,2021_Dec_21_1241,exp,2021.2.3,59.92873084319928,
left,go,2,0,2,0,11,0,66,1,1131.3074979782104,None,1,0.6597919464111328,1131.3074979782104,None,1132.0960111618042,None,1133.128566980362,1133.4794940948486,1133.128566980362,1133.4794940948486,1132.0960111618042,None,1132.0960111618042,None,1132.0960111618042,None,-1,-1,1,True,233.3066463470459,578.5014629364014,left,1134.7798130512238,None,pp_04_1,icub,clamp,2021_Dec_21_1241,exp,2021.2.3,59.92873084319928,
left,go,2,0,2,0,11,1,67,0,1135.3084950447083,None,1,0.752795934677124,1135.3084950447083,None,1136.1560111045837,None,1137.152666091919,1137.5019171237946,1137.152666091919,1137.5019171237946,1136.1560111045837,None,1136.1560111045837,None,1136.1560111045837,None,-1,-1,1,True,330.54542541503906,607.1581840515137,left,1138.966295003891,None,pp_04_1,icub,clamp,2021_Dec_21_1241,exp,2021.2.3,59.92873084319928,
left,stop,2,0,2,0,11,2,68,2,1139.47416305542,None,1,0.5050380229949951,1139.47416305542,None,1140.0932831764221,None,1141.1004121303558,1141.463026046753,1141.1004121303558,1141.463026046753,1140.0932831764221,None,1140.0932831764221,None,1140.0932831764221,None,300,350,1,True,129.50396537780762,-1.0,-1,1145.119861125946,None,pp_04_1,icub,clamp,2021_Dec_21_1241,exp,2021.2.3,59.92873084319928,
left,go,2,0,2,0,11,3,69,1,1145.6516749858856,None,1,0.6890518665313721,1145.6516749858856,None,1146.4494631290436,None,1147.4295191764832,1147.7880511283875,1147.4295191764832,1147.7880511283875,1146.4494631290436,None,1146.4494631290436,None,1146.4494631290436,None,-1,-1,1,True,300.9486198425293,651.3135433197021,left,1149.2716410160065,None,pp_04_1,icub,clamp,2021_Dec_21_1241,exp,2021.2.3,59.92873084319928,
left,stop,2,0,2,0,11,4,70,2,1149.7762830257416,None,1,0.758051872253418,1149.7762830257416,None,1150.6298491954803,None,1151.6621730327606,1152.0176990032196,1151.6621730327606,1152.0176990032196,1150.6298491954803,None,1150.6298491954803,None,1150.6298491954803,None,350,350,1,True,438.85207176208496,-1.0,-1,1155.94779920578,None,pp_04_1,icub,clamp,2021_Dec_21_1241,exp,2021.2.3,59.92873084319928,
right,go,2,0,2,0,11,5,71,3,1156.4459300041199,None,1,0.5908169746398926,1156.4459300041199,None,1157.1196191310883,None,1158.1020441055298,1158.4661700725555,1158.1020441055298,1158.4661700725555,1157.1196191310883,None,1157.1196191310883,None,1157.1196191310883,None,-1,-1,1,True,129.17709350585938,675.7488250732422,right,1159.7986850738525,None,pp_04_1,icub,clamp,2021_Dec_21_1241,exp,2021.2.3,59.92873084319928,
right,stop,2,0,2,0,12,0,72,5,1160.3264679908752,None,1,0.60579514503479,1160.3264679908752,None,1161.0505940914154,None,1162.0600900650024,1162.3994801044464,1162.0600900650024,1162.3994801044464,1161.0505940914154,None,1161.0505940914154,None,1161.0505940914154,None,400,350,1,True,404.3605327606201,-1.0,-1,1166.3559000492096,None,pp_04_1,icub,clamp,2021_Dec_21_1241,exp,2021.2.3,59.92873084319928,
right,go,2,0,2,0,12,1,73,3,1166.8900151252747,None,1,0.4396219253540039,1166.8900151252747,None,1167.4405410289764,None,1168.4252390861511,1168.7888731956482,1168.4252390861511,1168.7888731956482,1167.4405410289764,None,1167.4405410289764,None,1167.4405410289764,None,-1,-1,1,True,255.0513744354248,650.7265567779541,right,1170.2272951602936,None,pp_04_1,icub,clamp,2021_Dec_21_1241,exp,2021.2.3,59.92873084319928,
left,stop,2,0,2,0,12,2,74,2,1170.738442182541,None,1,0.592426061630249,1170.738442182541,None,1171.4063680171967,None,1172.4071459770203,1172.7641861438751,1172.4071459770203,1172.7641861438751,1171.4063680171967,None,1171.4063680171967,None,1171.4063680171967,None,400,400,1,True,373.3384609222412,-1.0,-1,1176.6479511260986,None,pp_04_1,icub,clamp,2021_Dec_21_1241,exp,2021.2.3,59.92873084319928,
left,go,2,0,2,0,12,3,75,0,1177.18137717247,None,1,0.48319506645202637,1177.18137717247,None,1177.7946150302887,None,1178.7654201984406,1179.0958790779114,1178.7654201984406,1179.0958790779114,1177.7946150302887,None,1177.7946150302887,None,1177.7946150302887,None,-1,-1,1,True,406.97312355041504,549.7868061065674,left,1180.6269030570984,None,pp_04_1,icub,clamp,2021_Dec_21_1241,exp,2021.2.3,59.92873084319928,
right,go,2,0,2,0,12,4,76,4,1181.135968208313,None,1,0.5099689960479736,1181.135968208313,None,1181.7413799762726,None,1182.7605710029602,1183.097284078598,1182.7605710029602,1183.097284078598,1181.7413799762726,None,1181.7413799762726,None,1181.7413799762726,None,-1,-1,1,True,493.01910400390625,565.4091835021973,right,1184.6838669776917,None,pp_04_1,icub,clamp,2021_Dec_21_1241,exp,2021.2.3,59.92873084319928,
right,stop,2,0,2,0,12,5,77,5,1185.2159881591797,None,1,0.5125100612640381,1185.2159881591797,None,1185.823958158493,None,1186.8151831626892,1187.1664102077484,1186.8151831626892,1187.1664102077484,1185.823958158493,None,1185.823958158493,None,1185.823958158493,None,450,400,0,True,430.8316707611084,580.8429718017578,right,1188.7164301872253,None,pp_04_1,icub,clamp,2021_Dec_21_1241,exp,2021.2.3,59.92873084319928,
right,go,3,0,3,0,0,0,0,3,1205.895660161972,None,1,4.370392799377441,1205.895660161972,None,1210.3895361423492,None,1211.4181950092316,1211.7738740444183,1211.4181950092316,1211.7738740444183,1210.3895361423492,None,1210.3895361423492,None,1210.3895361423492,None,-1,-1,1,True,65.01531600952148,664.9937629699707,right,1213.0013871192932,None,pp_04_1,icub,clamp,2021_Dec_21_1241,exp,2021.2.3,59.92873084319928,
left,go,3,0,3,0,0,1,1,0,1213.5052950382233,None,1,0.8844578266143799,1213.5052950382233,None,1214.4802510738373,None,1215.504672050476,1215.8677911758423,1215.504672050476,1215.8677911758423,1214.4802510738373,None,1214.4802510738373,None,1214.4802510738373,None,-1,-1,1,True,162.49418258666992,582.0562839508057,left,1217.1292281150818,None,pp_04_1,icub,clamp,2021_Dec_21_1241,exp,2021.2.3,59.92873084319928,
right,stop,3,0,3,0,0,2,2,5,1217.6424810886383,None,1,0.8483960628509521,1217.6424810886383,None,1218.619635105133,None,1219.6357071399689,1220.0014929771423,1219.6357071399689,1220.0014929771423,1218.619635105133,None,1218.619635105133,None,1218.619635105133,None,450,350,0,True,297.5423336029053,523.9582061767578,right,1221.3194811344147,None,pp_04_1,icub,clamp,2021_Dec_21_1241,exp,2021.2.3,59.92873084319928,
left,go,3,0,3,0,0,3,3,0,1221.8144249916077,None,1,0.5475709438323975,1221.8144249916077,None,1222.4752821922302,None,1223.4991991519928,1223.868996143341,1223.4991991519928,1223.868996143341,1222.4752821922302,None,1222.4752821922302,None,1222.4752821922302,None,-1,-1,1,True,282.4101448059082,573.8787651062012,left,1225.2195620536804,None,pp_04_1,icub,clamp,2021_Dec_21_1241,exp,2021.2.3,59.92873084319928,
right,stop,3,0,3,0,0,4,4,5,1225.7309110164642,None,1,0.5435647964477539,1225.7309110164642,None,1226.3964431285858,None,1227.4251101016998,1227.7803490161896,1227.4251101016998,1227.7803490161896,1226.3964431285858,None,1226.3964431285858,None,1226.3964431285858,None,450,300,1,True,324.8026371002197,-1.0,-1,1231.633285999298,None,pp_04_1,icub,clamp,2021_Dec_21_1241,exp,2021.2.3,59.92873084319928,
left,stop,3,0,3,0,0,5,5,2,1232.1651391983032,None,1,0.3791470527648926,1232.1651391983032,None,1232.6536371707916,None,1233.6396491527557,1234.002102136612,1233.6396491527557,1234.002102136612,1232.6536371707916,None,1232.6536371707916,None,1232.6536371707916,None,450,350,1,True,306.2896728515625,-1.0,-1,1237.8398830890656,None,pp_04_1,icub,clamp,2021_Dec_21_1241,exp,2021.2.3,59.92873084319928,
left,go,3,0,3,0,1,0,6,0,1238.3716189861298,None,1,0.889807939529419,1238.3716189861298,None,1239.3556611537933,None,1240.3529031276703,1240.7064621448517,1240.3529031276703,1240.7064621448517,1239.3556611537933,None,1239.3556611537933,None,1239.3556611537933,None,-1,-1,1,True,363.41118812561035,631.0608386993408,left,1242.2300560474396,None,pp_04_1,icub,clamp,2021_Dec_21_1241,exp,2021.2.3,59.92873084319928,
right,go,3,0,3,0,1,1,7,4,1242.7372720241547,None,1,0.8617050647735596,1242.7372720241547,None,1243.7127561569214,None,1244.7281260490417,1245.0762510299683,1244.7281260490417,1245.0762510299683,1243.7127561569214,None,1243.7127561569214,None,1243.7127561569214,None,-1,-1,1,True,459.75327491760254,654.2954444885254,right,1246.712426185608,None,pp_04_1,icub,clamp,2021_Dec_21_1241,exp,2021.2.3,59.92873084319928,
right,go,3,0,3,0,1,2,8,3,1247.2193641662598,None,1,0.664315938949585,1247.2193641662598,None,1248.0076620578766,None,1249.0011620521545,1249.3530039787292,1249.0011620521545,1249.3530039787292,1248.0076620578766,None,1248.0076620578766,None,1248.0076620578766,None,-1,-1,1,True,387.30740547180176,635.3471279144287,right,1250.9093639850616,None,pp_04_1,icub,clamp,2021_Dec_21_1241,exp,2021.2.3,59.92873084319928,
left,go,3,0,3,0,1,3,9,0,1251.4127922058105,None,1,0.5697188377380371,1251.4127922058105,None,1252.0837440490723,None,1253.0807330608368,1253.4313910007477,1253.0807330608368,1253.4313910007477,1252.0837440490723,None,1252.0837440490723,None,1252.0837440490723,None,-1,-1,1,True,315.7966136932373,606.0452461242676,left,1254.8853151798248,None,pp_04_1,icub,clamp,2021_Dec_21_1241,exp,2021.2.3,59.92873084319928,
left,stop,3,0,3,0,1,4,10,2,1255.406007051468,None,1,0.6903841495513916,1255.406007051468,None,1256.19757604599,None,1257.1904971599579,1257.5351901054382,1257.1904971599579,1257.5351901054382,1256.19757604599,None,1256.19757604599,None,1256.19757604599,None,500,350,0,True,274.5649814605713,596.8399047851562,left,1258.9760332107544,None,pp_04_1,icub,clamp,2021_Dec_21_1241,exp,2021.2.3,59.92873084319928,
left,go,3,0,3,0,1,5,11,1,1259.4719791412354,None,1,0.6588900089263916,1259.4719791412354,None,1260.2592651844025,None,1261.2859871387482,1261.6451511383057,1261.2859871387482,1261.6451511383057,1260.2592651844025,None,1260.2592651844025,None,1260.2592651844025,None,-1,-1,1,True,340.8322334289551,697.136402130127,left,1263.2144830226898,None,pp_04_1,icub,clamp,2021_Dec_21_1241,exp,2021.2.3,59.92873084319928,
