Holder,Action,blocks.thisRepN,blocks.thisTrialN,blocks.thisN,blocks.thisIndex,trials.thisRepN,trials.thisTrialN,trials.thisN,trials.thisIndex,start_msg.started,start_msg.stopped,RespButton_start_trial.keys,RespButton_start_trial.rt,RespButton_start_trial.started,RespButton_start_trial.stopped,GREEN.started,GREEN.stopped,LEFT_RED.started,LEFT_RED.stopped,RIGHT_RED.started,RIGHT_RED.stopped,LEFT_CIRCLE.started,LEFT_CIRCLE.stopped,CENTER_CIRCLE.started,CENTER_CIRCLE.stopped,RIGHT_CIRCLE.started,RIGHT_CIRCLE.stopped,SOUND_DELAY_MS_LEFT,SOUND_DELAY_MS_RIGHT,CORRECT,VALIDITY,RELEASE_TIME,TOUCH_TIME,BOTTLE_RESPONSE_POSITION,text.started,text.stopped,pid,left_position,right_position,date,expName,psychopyVersion,frameRate,
left,go,0,0,0,0,0,0,0,0,25.367749214172363,None,1,4.10798978805542,25.367749214172363,None,29.556226015090942,None,30.575675010681152,30.934406995773315,30.575675010681152,30.934406995773315,29.556226015090942,None,29.556226015090942,None,29.556226015090942,None,-1,-1,1,True,347.3491668701172,352.13565826416016,left,32.13350200653076,None,2,icub,clamp,2021_Dec_21_0944,exp,2021.2.3,59.95280166837954,
left,go,0,0,0,0,0,1,1,1,32.648266077041626,None,1,1.5842649936676025,32.648266077041626,None,34.30806112289429,None,35.31306719779968,35.664133071899414,35.31306719779968,35.664133071899414,34.30806112289429,None,34.30806112289429,None,34.30806112289429,None,-1,-1,1,True,352.54716873168945,493.8960075378418,left,37.02526021003723,None,2,icub,clamp,2021_Dec_21_0944,exp,2021.2.3,59.95280166837954,
right,stop,0,0,0,0,0,2,2,5,37.54141116142273,None,1,1.594369888305664,37.54141116142273,None,39.25935101509094,None,40.266563177108765,40.608686208724976,40.266563177108765,40.608686208724976,39.25935101509094,None,39.25935101509094,None,39.25935101509094,None,500,500,0,True,340.93236923217773,512.0608806610107,right,42.00830316543579,None,2,icub,clamp,2021_Dec_21_0944,exp,2021.2.3,59.95280166837954,
right,stop,0,0,0,0,0,3,3,5,42.50385403633118,None,1,46.31972599029541,42.50385403633118,None,88.91856217384338,None,89.92162609100342,90.27063918113708,89.92162609100342,90.27063918113708,88.91856217384338,None,88.91856217384338,None,88.91856217384338,None,500,450,0,True,309.65352058410645,429.2573928833008,right,91.54080200195312,None,2,icub,clamp,2021_Dec_21_0944,exp,2021.2.3,59.95280166837954,
right,go,0,0,0,0,0,4,4,4,92.04509711265564,None,1,9.382342100143433,92.04509711265564,None,101.54776310920715,None,102.54720616340637,102.90738201141357,102.54720616340637,102.90738201141357,101.54776310920715,None,101.54776310920715,None,101.54776310920715,None,-1,-1,1,True,765.8464908599854,643.22829246521,right,104.83632397651672,None,2,icub,clamp,2021_Dec_21_0944,exp,2021.2.3,59.95280166837954,
left,stop,0,0,0,0,0,5,5,2,105.33368420600891,None,1,1.205664873123169,105.33368420600891,None,106.6198251247406,None,107.62433218955994,107.98738408088684,107.62433218955994,107.98738408088684,106.6198251247406,None,106.6198251247406,None,106.6198251247406,None,500,400,0,True,442.34681129455566,538.8820171356201,left,109.5000250339508,None,2,icub,clamp,2021_Dec_21_0944,exp,2021.2.3,59.95280166837954,
left,go,0,0,0,0,1,0,6,0,110.01043701171875,None,1,1.5015459060668945,110.01043701171875,None,111.60266017913818,None,112.62915515899658,112.99032306671143,112.62915515899658,112.99032306671143,111.60266017913818,None,111.60266017913818,None,111.60266017913818,None,-1,-1,1,True,377.5975704193115,622.469425201416,left,114.48380208015442,None,2,icub,clamp,2021_Dec_21_0944,exp,2021.2.3,59.95280166837954,
left,stop,0,0,0,0,1,1,7,2,114.98523020744324,None,1,2.934256076812744,114.98523020744324,None,118.00508499145508,None,119.01990509033203,119.37260007858276,119.01990509033203,119.37260007858276,118.00508499145508,None,118.00508499145508,None,118.00508499145508,None,450,400,0,True,200.08134841918945,436.7532730102539,left,120.5460090637207,None,2,icub,clamp,2021_Dec_21_0944,exp,2021.2.3,59.95280166837954,
right,go,0,0,0,0,1,2,8,3,121.0652220249176,None,1,1.903122901916504,121.0652220249176,None,123.0884301662445,None,124.11614799499512,124.46400904655457,124.11614799499512,124.46400904655457,123.0884301662445,None,123.0884301662445,None,123.0884301662445,None,-1,-1,1,True,398.0545997619629,345.4902172088623,right,125.74057912826538,None,2,icub,clamp,2021_Dec_21_0944,exp,2021.2.3,59.95280166837954,
left,go,0,0,0,0,1,3,9,0,126.2452700138092,None,1,1.07912278175354,126.2452700138092,None,127.40495610237122,None,128.40084314346313,128.75526309013367,128.40084314346313,128.75526309013367,127.40495610237122,None,127.40495610237122,None,127.40495610237122,None,-1,-1,1,True,408.18309783935547,368.23368072509766,left,130.06604409217834,None,2,icub,clamp,2021_Dec_21_0944,exp,2021.2.3,59.95280166837954,
left,go,0,0,0,0,1,4,10,1,130.583074092865,None,1,1.1642210483551025,130.583074092865,None,131.8682451248169,None,132.86212706565857,133.21710109710693,132.86212706565857,133.21710109710693,131.8682451248169,None,131.8682451248169,None,131.8682451248169,None,-1,-1,1,True,311.0630512237549,396.909236907959,left,134.47912001609802,None,2,icub,clamp,2021_Dec_21_0944,exp,2021.2.3,59.95280166837954,
right,go,0,0,0,0,1,5,11,3,134.99354314804077,None,1,1.0278000831604004,134.99354314804077,None,136.1494221687317,None,137.1810920238495,137.54310512542725,137.1810920238495,137.54310512542725,136.1494221687317,None,136.1494221687317,None,136.1494221687317,None,-1,-1,1,True,340.1834964752197,361.7563247680664,right,138.73408913612366,None,2,icub,clamp,2021_Dec_21_0944,exp,2021.2.3,59.95280166837954,
left,stop,0,0,0,0,2,0,12,2,139.2439591884613,None,1,0.8294739723205566,139.2439591884613,None,140.1590871810913,None,141.16678309440613,141.52484107017517,141.16678309440613,141.52484107017517,140.1590871810913,None,140.1590871810913,None,140.1590871810913,None,400,400,0,True,358.23869705200195,359.3323230743408,left,142.75570917129517,None,2,icub,clamp,2021_Dec_21_0944,exp,2021.2.3,59.95280166837954,
right,stop,0,0,0,0,2,1,13,5,143.2671492099762,None,1,0.9535791873931885,143.2671492099762,None,144.30617213249207,None,145.3140389919281,145.64564204216003,145.3140389919281,145.64564204216003,144.30617213249207,None,144.30617213249207,None,144.30617213249207,None,350,400,0,True,376.6441345214844,356.2657833099365,right,146.94796705245972,None,2,icub,clamp,2021_Dec_21_0944,exp,2021.2.3,59.95280166837954,
right,go,0,0,0,0,2,2,14,3,147.47675013542175,None,1,0.7599279880523682,147.47675013542175,None,148.33241200447083,None,149.34241914749146,149.6927411556244,149.34241914749146,149.6927411556244,148.33241200447083,None,148.33241200447083,None,148.33241200447083,None,,,0,False,-1.0,-1.0,-1,149.9983160495758,None,2,icub,clamp,2021_Dec_21_0944,exp,2021.2.3,59.95280166837954,
left,stop,0,0,0,0,2,3,15,2,150.50657320022583,None,1,1.2766170501708984,150.50657320022583,None,151.91088104248047,None,152.9199571609497,153.27204513549805,152.9199571609497,153.27204513549805,151.91088104248047,None,151.91088104248047,None,151.91088104248047,None,,,0,False,-1.0,-1.0,-1,153.45975613594055,None,2,icub,clamp,2021_Dec_21_0944,exp,2021.2.3,59.95280166837954,
right,go,0,0,0,0,2,4,16,4,153.99147009849548,None,1,0.7325429916381836,153.99147009849548,None,154.85068011283875,None,155.8547661304474,156.2150490283966,155.8547661304474,156.2150490283966,154.85068011283875,None,154.85068011283875,None,154.85068011283875,None,-1,-1,1,True,321.26474380493164,251.35016441345215,right,157.3228120803833,None,2,icub,clamp,2021_Dec_21_0944,exp,2021.2.3,59.95280166837954,
right,stop,0,0,0,0,2,5,17,5,157.84047508239746,None,1,1.0830261707305908,157.84047508239746,None,159.0038959980011,None,160.02108311653137,160.37319898605347,160.02108311653137,160.37319898605347,159.0038959980011,None,159.0038959980011,None,159.0038959980011,None,,,0,False,-1.0,-1.0,-1,160.8905680179596,None,2,icub,clamp,2021_Dec_21_0944,exp,2021.2.3,59.95280166837954,
left,stop,0,0,0,0,3,0,18,2,161.39956402778625,None,1,1.2208631038665771,161.39956402778625,None,162.74350714683533,None,163.74377512931824,164.1097490787506,163.74377512931824,164.1097490787506,162.74350714683533,None,162.74350714683533,None,162.74350714683533,None,350,350,0,True,384.7460746765137,236.31763458251953,left,165.25171208381653,None,2,icub,clamp,2021_Dec_21_0944,exp,2021.2.3,59.95280166837954,
right,go,0,0,0,0,3,1,19,4,165.75802397727966,None,1,0.8327090740203857,165.75802397727966,None,166.67115211486816,None,167.69703912734985,168.0584590435028,167.69703912734985,168.0584590435028,166.67115211486816,None,166.67115211486816,None,166.67115211486816,None,-1,-1,1,True,423.2180118560791,282.14430809020996,right,169.27429509162903,None,2,icub,clamp,2021_Dec_21_0944,exp,2021.2.3,59.95280166837954,
right,stop,0,0,0,0,3,2,20,5,169.77135801315308,None,1,1.0188732147216797,169.77135801315308,None,170.9131760597229,None,171.9475061893463,172.29978013038635,171.9475061893463,172.29978013038635,170.9131760597229,None,170.9131760597229,None,170.9131760597229,None,300,350,0,True,248.39448928833008,244.2944049835205,right,173.31872415542603,None,2,icub,clamp,2021_Dec_21_0944,exp,2021.2.3,59.95280166837954,
right,go,0,0,0,0,3,3,21,4,173.83702111244202,None,1,2.7832889556884766,173.83702111244202,None,176.72463297843933,None,177.7252151966095,178.08584117889404,177.7252151966095,178.08584117889404,176.72463297843933,None,176.72463297843933,None,176.72463297843933,None,-1,-1,1,True,379.427433013916,333.5132598876953,right,179.33469104766846,None,2,icub,clamp,2021_Dec_21_0944,exp,2021.2.3,59.95280166837954,
right,go,0,0,0,0,3,4,22,4,179.85448503494263,None,1,1.198922872543335,179.85448503494263,None,181.13870310783386,None,182.15975499153137,182.51560711860657,182.15975499153137,182.51560711860657,181.13870310783386,None,181.13870310783386,None,181.13870310783386,None,-1,-1,1,True,336.49158477783203,365.57650566101074,right,183.74265909194946,None,2,icub,clamp,2021_Dec_21_0944,exp,2021.2.3,59.95280166837954,
right,go,0,0,0,0,3,5,23,4,184.24871706962585,None,1,1.3963680267333984,184.24871706962585,None,185.7206950187683,None,186.7434070110321,187.09355401992798,186.7434070110321,187.09355401992798,185.7206950187683,None,185.7206950187683,None,185.7206950187683,None,-1,-1,1,True,328.97424697875977,350.41284561157227,right,188.28340220451355,None,2,icub,clamp,2021_Dec_21_0944,exp,2021.2.3,59.95280166837954,
right,go,0,0,0,0,4,0,24,4,188.79580807685852,None,1,0.9625818729400635,188.79580807685852,None,189.83391904830933,None,190.83445715904236,191.18988299369812,190.83445715904236,191.18988299369812,189.83391904830933,None,189.83391904830933,None,189.83391904830933,None,-1,-1,1,True,460.73031425476074,400.043249130249,right,192.57407212257385,None,2,icub,clamp,2021_Dec_21_0944,exp,2021.2.3,59.95280166837954,
right,go,0,0,0,0,4,1,25,3,193.08108520507812,None,1,0.7510099411010742,193.08108520507812,None,193.93282413482666,None,194.955313205719,195.30972599983215,194.955313205719,195.30972599983215,193.93282413482666,None,193.93282413482666,None,193.93282413482666,None,-1,-1,1,True,343.0757522583008,343.1267738342285,right,196.51949501037598,None,2,icub,clamp,2021_Dec_21_0944,exp,2021.2.3,59.95280166837954,
right,stop,0,0,0,0,4,2,26,5,197.02879214286804,None,1,0.901630163192749,197.02879214286804,None,198.00582909584045,None,199.010174036026,199.36039304733276,199.010174036026,199.36039304733276,198.00582909584045,None,198.00582909584045,None,198.00582909584045,None,300,300,0,True,444.4713592529297,337.7411365509033,right,200.6755120754242,None,2,icub,clamp,2021_Dec_21_0944,exp,2021.2.3,59.95280166837954,
right,stop,0,0,0,0,4,3,27,5,201.1754801273346,None,1,0.9451498985290527,201.1754801273346,None,202.20733404159546,None,203.21901512145996,203.58354902267456,203.21901512145996,203.58354902267456,202.20733404159546,None,202.20733404159546,None,202.20733404159546,None,300,250,0,True,818.042516708374,436.4490509033203,right,205.36896109580994,None,2,icub,clamp,2021_Dec_21_0944,exp,2021.2.3,59.95280166837954,
right,stop,0,0,0,0,4,4,28,5,205.88583111763,None,1,4.198318958282471,205.88583111763,None,210.20280718803406,None,211.22752904891968,211.58372521400452,211.22752904891968,211.58372521400452,210.20280718803406,None,210.20280718803406,None,210.20280718803406,None,300,200,0,True,355.182409286499,311.07163429260254,right,212.76674699783325,None,2,icub,clamp,2021_Dec_21_0944,exp,2021.2.3,59.95280166837954,
left,go,0,0,0,0,4,5,29,0,213.2893362045288,None,1,0.7257881164550781,213.2893362045288,None,214.13826203346252,None,215.13460111618042,215.48877906799316,215.13460111618042,215.48877906799316,214.13826203346252,None,214.13826203346252,None,214.13826203346252,None,-1,-1,1,True,359.6031665802002,281.0823917388916,left,216.68230414390564,None,2,icub,clamp,2021_Dec_21_0944,exp,2021.2.3,59.95280166837954,
right,stop,0,0,0,0,5,0,30,5,217.21273612976074,None,1,1.809413194656372,217.21273612976074,None,219.11876797676086,None,220.1287441253662,220.46389412879944,220.1287441253662,220.46389412879944,219.11876797676086,None,219.11876797676086,None,219.11876797676086,None,300,150,0,True,336.8675708770752,285.7229709625244,right,221.65535306930542,None,2,icub,clamp,2021_Dec_21_0944,exp,2021.2.3,59.95280166837954,
left,go,0,0,0,0,5,1,31,1,222.16502404212952,None,1,1.0061860084533691,222.16502404212952,None,223.26166415214539,None,224.28858613967896,224.63498401641846,224.28858613967896,224.63498401641846,223.26166415214539,None,223.26166415214539,None,223.26166415214539,None,-1,-1,1,True,464.21313285827637,366.1625385284424,left,225.99239897727966,None,2,icub,clamp,2021_Dec_21_0944,exp,2021.2.3,59.95280166837954,
right,go,0,0,0,0,5,2,32,4,226.51208305358887,None,1,0.8692588806152344,226.51208305358887,None,227.48366403579712,None,228.5173740386963,228.87961721420288,228.5173740386963,228.87961721420288,227.48366403579712,None,227.48366403579712,None,227.48366403579712,None,-1,-1,1,True,405.38549423217773,354.1138172149658,right,230.12659120559692,None,2,icub,clamp,2021_Dec_21_0944,exp,2021.2.3,59.95280166837954,
left,go,0,0,0,0,5,3,33,1,230.63416814804077,None,1,1.1037569046020508,230.63416814804077,None,231.8574140071869,None,232.89125800132751,233.25182509422302,232.89125800132751,233.25182509422302,231.8574140071869,None,231.8574140071869,None,231.8574140071869,None,-1,-1,1,True,415.1732921600342,354.0072441101074,left,234.51076817512512,None,2,icub,clamp,2021_Dec_21_0944,exp,2021.2.3,59.95280166837954,
left,go,0,0,0,0,5,4,34,1,235.03141117095947,None,1,1.3348650932312012,235.03141117095947,None,236.498929977417,None,237.50195217132568,237.84729409217834,237.50195217132568,237.84729409217834,236.498929977417,None,236.498929977417,None,236.498929977417,None,-1,-1,1,True,341.37535095214844,406.9986343383789,left,239.12667107582092,None,2,icub,clamp,2021_Dec_21_0944,exp,2021.2.3,59.95280166837954,
right,go,0,0,0,0,5,5,35,3,239.62853717803955,None,1,1.0655889511108398,239.62853717803955,None,240.78902912139893,None,241.81205916404724,242.16377902030945,241.81205916404724,242.16377902030945,240.78902912139893,None,240.78902912139893,None,240.78902912139893,None,-1,-1,1,True,344.91705894470215,405.322790145874,right,243.4403121471405,None,2,icub,clamp,2021_Dec_21_0944,exp,2021.2.3,59.95280166837954,
left,go,0,0,0,0,6,0,36,0,243.9464771747589,None,1,0.7946279048919678,243.9464771747589,None,244.85984015464783,None,245.89101815223694,246.24077606201172,245.89101815223694,246.24077606201172,244.85984015464783,None,244.85984015464783,None,244.85984015464783,None,-1,-1,1,True,326.2627124786377,382.39169120788574,left,247.46245408058167,None,2,icub,clamp,2021_Dec_21_0944,exp,2021.2.3,59.95280166837954,
left,go,0,0,0,0,6,1,37,0,247.97324013710022,None,1,1.2318971157073975,247.97324013710022,None,249.3199942111969,None,250.34992814064026,250.71033310890198,250.34992814064026,250.71033310890198,249.3199942111969,None,249.3199942111969,None,249.3199942111969,None,-1,-1,1,True,361.8137836456299,512.3491287231445,left,252.07465720176697,None,2,icub,clamp,2021_Dec_21_0944,exp,2021.2.3,59.95280166837954,
left,stop,0,0,0,0,6,2,38,2,252.58770608901978,None,1,0.981328010559082,252.58770608901978,None,253.6887230873108,None,254.68144702911377,255.05043721199036,254.68144702911377,255.05043721199036,253.6887230873108,None,253.6887230873108,None,253.6887230873108,None,300,100,0,True,296.1463928222656,416.1665439605713,left,256.2995910644531,None,2,icub,clamp,2021_Dec_21_0944,exp,2021.2.3,59.95280166837954,
right,go,0,0,0,0,6,3,39,3,256.81225419044495,None,1,1.0350401401519775,256.81225419044495,None,257.9703960418701,None,259.0041010379791,259.37186908721924,259.0041010379791,259.37186908721924,257.9703960418701,None,257.9703960418701,None,257.9703960418701,None,-1,-1,1,True,289.92247581481934,372.89881706237793,right,260.52043318748474,None,2,icub,clamp,2021_Dec_21_0944,exp,2021.2.3,59.95280166837954,
right,go,0,0,0,0,6,4,40,3,261.0386211872101,None,1,0.8032968044281006,261.0386211872101,None,261.95032119750977,None,262.96387004852295,263.32629919052124,262.96387004852295,263.32629919052124,261.95032119750977,None,261.95032119750977,None,261.95032119750977,None,-1,-1,1,True,82.60822296142578,524.6739387512207,right,264.4616050720215,None,2,icub,clamp,2021_Dec_21_0944,exp,2021.2.3,59.95280166837954,
right,stop,0,0,0,0,6,5,41,5,264.97867703437805,None,1,0.6301980018615723,264.97867703437805,None,265.709281206131,None,266.73951411247253,267.09293818473816,266.73951411247253,267.09293818473816,265.709281206131,None,265.709281206131,None,265.709281206131,None,250,100,0,True,331.3772678375244,400.45928955078125,right,268.3194971084595,None,2,icub,clamp,2021_Dec_21_0944,exp,2021.2.3,59.95280166837954,
right,go,0,0,0,0,7,0,42,3,268.8133351802826,None,1,1.2735791206359863,268.8133351802826,None,270.16242003440857,None,271.1557810306549,271.51471400260925,271.1557810306549,271.51471400260925,270.16242003440857,None,270.16242003440857,None,270.16242003440857,None,-1,-1,1,True,315.63448905944824,287.0593070983887,right,272.6504271030426,None,2,icub,clamp,2021_Dec_21_0944,exp,2021.2.3,59.95280166837954,
right,stop,0,0,0,0,7,1,43,5,273.14841508865356,None,1,0.9957931041717529,273.14841508865356,None,274.24738907814026,None,275.280827999115,275.6393291950226,275.280827999115,275.6393291950226,274.24738907814026,None,274.24738907814026,None,274.24738907814026,None,250,50,0,True,274.74141120910645,584.1450691223145,right,276.98775005340576,None,2,icub,clamp,2021_Dec_21_0944,exp,2021.2.3,59.95280166837954,
left,go,0,0,0,0,7,2,44,1,277.4899981021881,None,1,1.1618921756744385,277.4899981021881,None,278.77046608924866,None,279.77016615867615,280.12296319007874,279.77016615867615,280.12296319007874,278.77046608924866,None,278.77046608924866,None,278.77046608924866,None,-1,-1,1,True,323.2874870300293,463.20271492004395,left,281.447793006897,None,2,icub,clamp,2021_Dec_21_0944,exp,2021.2.3,59.95280166837954,
right,go,0,0,0,0,7,3,45,4,281.95804500579834,None,1,1.083791971206665,281.95804500579834,None,283.1223051548004,None,284.1410551071167,284.50264716148376,284.1410551071167,284.50264716148376,283.1223051548004,None,283.1223051548004,None,283.1223051548004,None,-1,-1,1,True,292.99092292785645,443.8447952270508,right,285.7613401412964,None,2,icub,clamp,2021_Dec_21_0944,exp,2021.2.3,59.95280166837954,
right,go,0,0,0,0,7,4,46,3,286.2812399864197,None,1,0.7438929080963135,286.2812399864197,None,287.13179421424866,None,288.12598609924316,288.49529504776,288.12598609924316,288.49529504776,287.13179421424866,None,287.13179421424866,None,287.13179421424866,None,-1,-1,1,True,315.5677318572998,420.987606048584,right,289.75471901893616,None,2,icub,clamp,2021_Dec_21_0944,exp,2021.2.3,59.95280166837954,
right,go,0,0,0,0,7,5,47,4,290.2705080509186,None,1,0.7463388442993164,290.2705080509186,None,291.12112402915955,None,292.12292098999023,292.4715051651001,292.12292098999023,292.4715051651001,291.12112402915955,None,291.12112402915955,None,291.12112402915955,None,-1,-1,1,True,520.1144218444824,410.0217819213867,right,293.95236802101135,None,2,icub,clamp,2021_Dec_21_0944,exp,2021.2.3,59.95280166837954,
left,go,0,0,0,0,8,0,48,1,294.45551109313965,None,1,1.0527620315551758,294.45551109313965,None,295.6188790798187,None,296.64220213890076,296.99333119392395,296.64220213890076,296.99333119392395,295.6188790798187,None,295.6188790798187,None,295.6188790798187,None,-1,-1,1,True,578.7358283996582,434.74698066711426,left,298.52823400497437,None,2,icub,clamp,2021_Dec_21_0944,exp,2021.2.3,59.95280166837954,
right,go,0,0,0,0,8,1,49,3,299.0482461452484,None,1,1.0437519550323486,299.0482461452484,None,300.2062840461731,None,301.2293632030487,301.59676814079285,301.2293632030487,301.59676814079285,300.2062840461731,None,300.2062840461731,None,300.2062840461731,None,-1,-1,1,True,260.8518600463867,439.85819816589355,right,302.8015069961548,None,2,icub,clamp,2021_Dec_21_0944,exp,2021.2.3,59.95280166837954,
right,go,0,0,0,0,8,2,50,3,303.32119607925415,None,1,1.1629340648651123,303.32119607925415,None,304.60355615615845,None,305.6375970840454,305.9894871711731,305.6375970840454,305.9894871711731,304.60355615615845,None,304.60355615615845,None,304.60355615615845,None,-1,-1,1,True,324.21398162841797,429.69250679016113,right,307.2318911552429,None,2,icub,clamp,2021_Dec_21_0944,exp,2021.2.3,59.95280166837954,
left,go,0,0,0,0,8,3,51,1,307.74865102767944,None,1,2.4662020206451416,307.74865102767944,None,310.29047298431396,None,311.2993450164795,311.65174198150635,311.2993450164795,311.65174198150635,310.29047298431396,None,310.29047298431396,None,310.29047298431396,None,-1,-1,1,True,219.5274829864502,465.7914638519287,left,312.86807513237,None,2,icub,clamp,2021_Dec_21_0944,exp,2021.2.3,59.95280166837954,
left,go,0,0,0,0,8,4,52,0,313.3964431285858,None,1,0.9701821804046631,313.3964431285858,None,314.4952070713043,None,315.51333713531494,315.83762216567993,315.51333713531494,315.83762216567993,314.4952070713043,None,314.4952070713043,None,314.4952070713043,None,-1,-1,1,True,300.1105785369873,377.6428699493408,left,317.0777790546417,None,2,icub,clamp,2021_Dec_21_0944,exp,2021.2.3,59.95280166837954,
left,stop,0,0,0,0,8,5,53,2,317.6137430667877,None,1,2.6392598152160645,317.6137430667877,None,320.3854660987854,None,321.3962390422821,321.7605040073395,321.3962390422821,321.7605040073395,320.3854660987854,None,320.3854660987854,None,320.3854660987854,None,250,0,0,True,351.06635093688965,380.2297115325928,left,323.0163381099701,None,2,icub,clamp,2021_Dec_21_0944,exp,2021.2.3,59.95280166837954,
left,go,0,0,0,0,9,0,54,0,323.53249311447144,None,1,1.1454520225524902,323.53249311447144,None,324.75838804244995,None,325.7905831336975,326.14592719078064,325.7905831336975,326.14592719078064,324.75838804244995,None,324.75838804244995,None,324.75838804244995,None,-1,-1,1,True,396.4869976043701,394.519567489624,left,327.4300560951233,None,2,icub,clamp,2021_Dec_21_0944,exp,2021.2.3,59.95280166837954,
left,go,0,0,0,0,9,1,55,0,327.9360589981079,None,1,0.7989029884338379,327.9360589981079,None,328.8501431941986,None,329.8686590194702,330.2129352092743,329.8686590194702,330.2129352092743,328.8501431941986,None,328.8501431941986,None,328.8501431941986,None,-1,-1,1,True,58.11595916748047,672.4436283111572,left,331.4691631793976,None,2,icub,clamp,2021_Dec_21_0944,exp,2021.2.3,59.95280166837954,
left,stop,0,0,0,0,9,2,56,2,331.9853980541229,None,1,0.9213159084320068,331.9853980541229,None,333.0214741230011,None,334.031357049942,334.38829803466797,334.031357049942,334.38829803466797,333.0214741230011,None,333.0214741230011,None,333.0214741230011,None,200,0,0,True,370.0525760650635,480.9696674346924,left,335.76461601257324,None,2,icub,clamp,2021_Dec_21_0944,exp,2021.2.3,59.95280166837954,
left,go,0,0,0,0,9,3,57,1,336.28026008605957,None,1,0.8407809734344482,336.28026008605957,None,337.2485840320587,None,338.270220041275,338.63610219955444,338.270220041275,338.63610219955444,337.2485840320587,None,337.2485840320587,None,337.2485840320587,None,-1,-1,1,True,263.76962661743164,475.13532638549805,left,339.9033160209656,None,2,icub,clamp,2021_Dec_21_0944,exp,2021.2.3,59.95280166837954,
left,go,0,0,0,0,9,4,58,0,340.4215030670166,None,1,1.1101529598236084,340.4215030670166,None,341.6453580856323,None,342.64876198768616,342.9750380516052,342.64876198768616,342.9750380516052,341.6453580856323,None,341.6453580856323,None,341.6453580856323,None,-1,-1,1,True,356.8143844604492,429.34393882751465,left,344.33427119255066,None,2,icub,clamp,2021_Dec_21_0944,exp,2021.2.3,59.95280166837954,
right,go,0,0,0,0,9,5,59,4,344.8582320213318,None,1,0.9704809188842773,344.8582320213318,None,345.9517571926117,None,346.9598481655121,347.3021821975708,346.9598481655121,347.3021821975708,345.9517571926117,None,345.9517571926117,None,345.9517571926117,None,-1,-1,1,True,481.8592071533203,385.55407524108887,right,348.6954071521759,None,2,icub,clamp,2021_Dec_21_0944,exp,2021.2.3,59.95280166837954,
left,stop,0,0,0,0,10,0,60,2,349.2281000614166,None,1,0.9525349140167236,349.2281000614166,None,350.26606702804565,None,351.29615807533264,351.658194065094,351.29615807533264,351.658194065094,350.26606702804565,None,350.26606702804565,None,350.26606702804565,None,150,0,0,True,282.64617919921875,439.42999839782715,left,352.8744411468506,None,2,icub,clamp,2021_Dec_21_0944,exp,2021.2.3,59.95280166837954,
right,go,0,0,0,0,10,1,61,3,353.37330508232117,None,1,0.9975450038909912,353.37330508232117,None,354.4768261909485,None,355.47580218315125,355.8413670063019,355.47580218315125,355.8413670063019,354.4768261909485,None,354.4768261909485,None,354.4768261909485,None,-1,-1,1,True,293.3785915374756,459.8815441131592,right,357.12296509742737,None,2,icub,clamp,2021_Dec_21_0944,exp,2021.2.3,59.95280166837954,
left,stop,0,0,0,0,10,2,62,2,357.6440691947937,None,1,0.8568499088287354,357.6440691947937,None,358.6194100379944,None,359.62933015823364,359.99103307724,359.62933015823364,359.99103307724,358.6194100379944,None,358.6194100379944,None,358.6194100379944,None,100,0,1,True,291.14818572998047,-1.0,-1,363.81170105934143,None,2,icub,clamp,2021_Dec_21_0944,exp,2021.2.3,59.95280166837954,
right,go,0,0,0,0,10,3,63,3,364.3419680595398,None,1,1.29532790184021,364.3419680595398,None,365.75609707832336,None,366.73863410949707,367.1007800102234,366.73863410949707,367.1007800102234,365.75609707832336,None,365.75609707832336,None,365.75609707832336,None,-1,-1,1,True,289.5200252532959,393.2170867919922,right,368.3162100315094,None,2,icub,clamp,2021_Dec_21_0944,exp,2021.2.3,59.95280166837954,
left,go,0,0,0,0,10,4,64,1,368.83686208724976,None,1,0.9533278942108154,368.83686208724976,None,369.8748850822449,None,370.90467619895935,371.2659502029419,370.90467619895935,371.2659502029419,369.8748850822449,None,369.8748850822449,None,369.8748850822449,None,-1,-1,1,True,421.95773124694824,372.59483337402344,left,372.54940915107727,None,2,icub,clamp,2021_Dec_21_0944,exp,2021.2.3,59.95280166837954,
right,stop,0,0,0,0,10,5,65,5,373.07193899154663,None,1,3.488257884979248,373.07193899154663,None,376.6492841243744,None,377.64360213279724,377.9936981201172,377.64360213279724,377.9936981201172,376.6492841243744,None,376.6492841243744,None,376.6492841243744,None,150,0,1,True,689.9354457855225,-1.0,-1,382.24521708488464,None,2,icub,clamp,2021_Dec_21_0944,exp,2021.2.3,59.95280166837954,
left,go,0,0,0,0,11,0,66,1,382.7759051322937,None,1,3.436400890350342,382.7759051322937,None,386.2933201789856,None,387.2707710266113,387.63195300102234,387.2707710266113,387.63195300102234,386.2933201789856,None,386.2933201789856,None,386.2933201789856,None,-1,-1,1,True,31.01372718811035,397.02749252319336,left,388.5910701751709,None,2,icub,clamp,2021_Dec_21_0944,exp,2021.2.3,59.95280166837954,
left,stop,0,0,0,0,11,1,67,2,389.12206411361694,None,1,1.1005291938781738,389.12206411361694,None,390.3432230949402,None,391.35597014427185,391.71216797828674,391.35597014427185,391.71216797828674,390.3432230949402,None,390.3432230949402,None,390.3432230949402,None,150,50,1,True,317.5516128540039,-1.0,-1,395.5526690483093,None,2,icub,clamp,2021_Dec_21_0944,exp,2021.2.3,59.95280166837954,
right,stop,0,0,0,0,11,2,68,5,396.08304810523987,None,1,1.0682859420776367,396.08304810523987,None,397.251540184021,None,398.2326571941376,398.5757460594177,398.2326571941376,398.5757460594177,397.251540184021,None,397.251540184021,None,397.251540184021,None,200,50,1,True,327.1169662475586,-1.0,-1,402.47677397727966,None,2,icub,clamp,2021_Dec_21_0944,exp,2021.2.3,59.95280166837954,
left,stop,0,0,0,0,11,3,69,2,403.0082161426544,None,1,0.9719521999359131,403.0082161426544,None,404.11579608917236,None,405.0970799922943,405.44754099845886,405.0970799922943,405.44754099845886,404.11579608917236,None,404.11579608917236,None,404.11579608917236,None,200,100,1,True,344.7837829589844,-1.0,-1,409.3291130065918,None,2,icub,clamp,2021_Dec_21_0944,exp,2021.2.3,59.95280166837954,
left,go,0,0,0,0,11,4,70,1,409.8608419895172,None,1,0.8044109344482422,409.8608419895172,None,410.781699180603,None,411.7649052143097,412.1217370033264,411.7649052143097,412.1217370033264,410.781699180603,None,410.781699180603,None,410.781699180603,None,-1,-1,1,True,352.097749710083,616.8391704559326,left,413.6224989891052,None,2,icub,clamp,2021_Dec_21_0944,exp,2021.2.3,59.95280166837954,
left,go,0,0,0,0,11,5,71,1,414.14722514152527,None,1,1.221647024154663,414.14722514152527,None,415.4926390647888,None,416.52360820770264,416.8779320716858,416.52360820770264,416.8779320716858,415.4926390647888,None,415.4926390647888,None,415.4926390647888,None,-1,-1,1,True,247.2398281097412,655.3211212158203,left,418.3033721446991,None,2,icub,clamp,2021_Dec_21_0944,exp,2021.2.3,59.95280166837954,
right,go,0,0,0,0,12,0,72,4,418.81088399887085,None,1,1.2098238468170166,418.81088399887085,None,420.0962800979614,None,421.1160590648651,421.47686409950256,421.1160590648651,421.47686409950256,420.0962800979614,None,420.0962800979614,None,420.0962800979614,None,-1,-1,1,True,339.9372100830078,545.2685356140137,right,422.87285017967224,None,2,icub,clamp,2021_Dec_21_0944,exp,2021.2.3,59.95280166837954,
right,go,0,0,0,0,12,1,73,4,423.3929331302643,None,1,1.1908669471740723,423.3929331302643,None,424.6836631298065,None,425.692999124527,426.05121207237244,425.692999124527,426.05121207237244,424.6836631298065,None,424.6836631298065,None,424.6836631298065,None,-1,-1,1,True,274.3642330169678,581.5520286560059,right,427.4260220527649,None,2,icub,clamp,2021_Dec_21_0944,exp,2021.2.3,59.95280166837954,
left,go,0,0,0,0,12,2,74,0,427.92802906036377,None,1,1.1416559219360352,427.92802906036377,None,429.1501181125641,None,430.1733150482178,430.5278511047363,430.1733150482178,430.5278511047363,429.1501181125641,None,429.1501181125641,None,429.1501181125641,None,-1,-1,1,True,331.8979740142822,568.3693885803223,left,431.954959154129,None,2,icub,clamp,2021_Dec_21_0944,exp,2021.2.3,59.95280166837954,
left,go,0,0,0,0,12,3,75,0,432.4756832122803,None,1,1.4623339176177979,432.4756832122803,None,434.0135061740875,None,435.04423213005066,435.39659118652344,435.04423213005066,435.39659118652344,434.0135061740875,None,434.0135061740875,None,434.0135061740875,None,-1,-1,1,True,351.0262966156006,444.58794593811035,left,436.67713713645935,None,2,icub,clamp,2021_Dec_21_0944,exp,2021.2.3,59.95280166837954,
left,stop,0,0,0,0,12,4,76,2,437.19489312171936,None,1,0.861778974533081,437.19489312171936,None,438.168251991272,None,439.19706416130066,439.55045199394226,439.19706416130066,439.55045199394226,438.168251991272,None,438.168251991272,None,438.168251991272,None,250,100,0,True,381.7629814147949,464.536190032959,left,440.9262001514435,None,2,icub,clamp,2021_Dec_21_0944,exp,2021.2.3,59.95280166837954,
left,go,0,0,0,0,12,5,77,0,441.4360330104828,None,1,1.2402980327606201,441.4360330104828,None,442.78201508522034,None,443.7851140499115,444.1389892101288,443.7851140499115,444.1389892101288,442.78201508522034,None,442.78201508522034,None,442.78201508522034,None,-1,-1,1,True,293.384313583374,584.3169689178467,left,445.5420641899109,None,2,icub,clamp,2021_Dec_21_0944,exp,2021.2.3,59.95280166837954,
right,stop,1,0,1,0,0,0,0,5,466.1843891143799,None,1,7.614009141921997,466.1843891143799,None,473.92281699180603,None,None,None,None,None,473.92281699180603,None,473.92281699180603,None,473.92281699180603,None,,,0,False,-1.0,-1.0,-1,474.0180170536041,None,2,icub,clamp,2021_Dec_21_0944,exp,2021.2.3,59.95280166837954,
left,go,1,0,1,0,0,1,1,1,474.53632712364197,None,1,0.7546830177307129,474.53632712364197,None,475.3948860168457,None,476.3753972053528,476.7285649776459,476.3753972053528,476.7285649776459,475.3948860168457,None,475.3948860168457,None,475.3948860168457,None,-1,-1,1,True,320.3718662261963,507.14564323425293,left,478.0927050113678,None,2,icub,clamp,2021_Dec_21_0944,exp,2021.2.3,59.95280166837954,
right,go,1,0,1,0,0,2,2,3,478.6029670238495,None,1,1.2232139110565186,478.6029670238495,None,479.95087218284607,None,480.98326301574707,481.34096813201904,480.98326301574707,481.34096813201904,479.95087218284607,None,479.95087218284607,None,479.95087218284607,None,-1,-1,1,True,352.42152214050293,508.5928440093994,right,482.6927840709686,None,2,icub,clamp,2021_Dec_21_0944,exp,2021.2.3,59.95280166837954,
right,go,1,0,1,0,0,3,3,4,483.210645198822,None,1,1.0438060760498047,483.210645198822,None,484.35579109191895,None,485.3614251613617,485.72209215164185,485.3614251613617,485.72209215164185,484.35579109191895,None,484.35579109191895,None,484.35579109191895,None,-1,-1,1,True,336.4543914794922,516.8159008026123,right,487.09361004829407,None,2,icub,clamp,2021_Dec_21_0944,exp,2021.2.3,59.95280166837954,
left,go,1,0,1,0,0,4,4,1,487.60761618614197,None,1,0.8477299213409424,487.60761618614197,None,488.5795509815216,None,489.60058403015137,489.9561240673065,489.60058403015137,489.9561240673065,488.5795509815216,None,488.5795509815216,None,488.5795509815216,None,-1,-1,1,True,342.10705757141113,396.7916965484619,left,491.21596097946167,None,2,icub,clamp,2021_Dec_21_0944,exp,2021.2.3,59.95280166837954,
left,go,1,0,1,0,0,5,5,1,491.73366117477417,None,1,0.7227828502655029,491.73366117477417,None,492.55166506767273,None,493.5465021133423,493.90852904319763,493.5465021133423,493.90852904319763,492.55166506767273,None,492.55166506767273,None,492.55166506767273,None,-1,-1,0,False,315.5395984649658,470.92342376708984,right,495.23098707199097,None,2,icub,clamp,2021_Dec_21_0944,exp,2021.2.3,59.95280166837954,
right,go,1,0,1,0,1,0,6,3,495.750864982605,None,1,1.0365591049194336,495.750864982605,None,496.9111931324005,None,497.92154908180237,498.2718620300293,497.92154908180237,498.2718620300293,496.9111931324005,None,496.9111931324005,None,496.9111931324005,None,-1,-1,1,True,368.12496185302734,502.3534297943115,right,499.67894101142883,None,2,icub,clamp,2021_Dec_21_0944,exp,2021.2.3,59.95280166837954,
left,go,1,0,1,0,1,1,7,1,500.18414402008057,None,1,2.0472259521484375,500.18414402008057,None,502.331992149353,None,503.3331651687622,503.6910400390625,503.3331651687622,503.6910400390625,502.331992149353,None,502.331992149353,None,502.331992149353,None,-1,-1,1,True,215.43145179748535,544.2922115325928,left,504.977774143219,None,2,icub,clamp,2021_Dec_21_0944,exp,2021.2.3,59.95280166837954,
right,stop,1,0,1,0,1,2,8,5,505.4815001487732,None,1,0.8148281574249268,505.4815001487732,None,506.39660811424255,None,507.42414116859436,507.7912850379944,507.42414116859436,507.7912850379944,506.39660811424255,None,506.39660811424255,None,506.39660811424255,None,200,100,1,True,379.11272048950195,-1.0,-1,511.65265417099,None,2,icub,clamp,2021_Dec_21_0944,exp,2021.2.3,59.95280166837954,
left,stop,1,0,1,0,1,3,9,2,512.1850261688232,None,1,0.9069578647613525,512.1850261688232,None,513.2301671504974,None,514.2037470340729,514.5599370002747,514.2037470340729,514.5599370002747,513.2301671504974,None,513.2301671504974,None,513.2301671504974,None,200,150,1,True,315.28544425964355,-1.0,-1,518.44531416893,None,2,icub,clamp,2021_Dec_21_0944,exp,2021.2.3,59.95280166837954,
right,stop,1,0,1,0,1,4,10,5,518.9770460128784,None,1,0.8178300857543945,518.9770460128784,None,519.8986270427704,None,520.8757610321045,521.2316551208496,520.8757610321045,521.2316551208496,519.8986270427704,None,519.8986270427704,None,519.8986270427704,None,250,150,1,True,407.8211784362793,-1.0,-1,525.2071530818939,None,2,icub,clamp,2021_Dec_21_0944,exp,2021.2.3,59.95280166837954,
right,go,1,0,1,0,1,5,11,4,525.7373261451721,None,1,0.48755311965942383,525.7373261451721,None,526.3498420715332,None,527.3552901744843,527.7067770957947,527.3552901744843,527.7067770957947,526.3498420715332,None,526.3498420715332,None,526.3498420715332,None,-1,-1,1,True,379.15515899658203,558.2120418548584,right,529.1747431755066,None,2,icub,clamp,2021_Dec_21_0944,exp,2021.2.3,59.95280166837954,
right,go,1,0,1,0,2,0,12,4,529.6884241104126,None,1,1.1985299587249756,529.6884241104126,None,530.9724380970001,None,531.9841461181641,532.3397901058197,531.9841461181641,532.3397901058197,530.9724380970001,None,530.9724380970001,None,530.9724380970001,None,-1,-1,1,True,416.55468940734863,572.7157592773438,right,533.8620049953461,None,2,icub,clamp,2021_Dec_21_0944,exp,2021.2.3,59.95280166837954,
right,stop,1,0,1,0,2,1,13,5,534.3896570205688,None,1,1.1907808780670166,534.3896570205688,None,535.675950050354,None,536.6855130195618,537.0156011581421,536.6855130195618,537.0156011581421,535.675950050354,None,535.675950050354,None,535.675950050354,None,250,200,1,True,338.6516571044922,-1.0,-1,540.8881561756134,None,2,icub,clamp,2021_Dec_21_0944,exp,2021.2.3,59.95280166837954,
left,stop,1,0,1,0,2,2,14,2,541.4194231033325,None,1,0.8494889736175537,541.4194231033325,None,542.4038140773773,None,543.3877160549164,543.746169090271,543.3877160549164,543.746169090271,542.4038140773773,None,542.4038140773773,None,542.4038140773773,None,250,250,1,True,332.2632312774658,-1.0,-1,547.6044781208038,None,2,icub,clamp,2021_Dec_21_0944,exp,2021.2.3,59.95280166837954,
right,go,1,0,1,0,2,3,15,4,548.1367211341858,None,1,0.8301591873168945,548.1367211341858,None,549.0573351383209,None,550.0309340953827,550.3742971420288,550.0309340953827,550.3742971420288,549.0573351383209,None,549.0573351383209,None,549.0573351383209,None,-1,-1,1,True,71.9304084777832,669.835090637207,right,551.6875731945038,None,2,icub,clamp,2021_Dec_21_0944,exp,2021.2.3,59.95280166837954,
right,go,1,0,1,0,2,4,16,3,552.1928071975708,None,1,0.9054999351501465,552.1928071975708,None,553.1737360954285,None,554.177628993988,554.5287821292877,554.177628993988,554.5287821292877,553.1737360954285,None,553.1737360954285,None,553.1737360954285,None,-1,-1,1,True,271.18897438049316,578.1698226928711,right,555.8956861495972,None,2,icub,clamp,2021_Dec_21_0944,exp,2021.2.3,59.95280166837954,
left,go,1,0,1,0,2,5,17,1,556.4157462120056,None,1,1.0765719413757324,556.4157462120056,None,557.5830380916595,None,558.5771200656891,558.941251039505,558.5771200656891,558.941251039505,557.5830380916595,None,557.5830380916595,None,557.5830380916595,None,-1,-1,1,True,347.71251678466797,607.5053215026855,left,560.4137570858002,None,2,icub,clamp,2021_Dec_21_0944,exp,2021.2.3,59.95280166837954,
right,stop,1,0,1,0,3,0,18,5,560.9208731651306,None,1,1.6558051109313965,560.9208731651306,None,562.6998040676117,None,563.7117991447449,564.034049987793,563.7117991447449,564.034049987793,562.6998040676117,None,562.6998040676117,None,562.6998040676117,None,300,250,1,True,212.34750747680664,-1.0,-1,567.7953021526337,None,2,icub,clamp,2021_Dec_21_0944,exp,2021.2.3,59.95280166837954,
right,stop,1,0,1,0,3,1,19,5,568.326544046402,None,1,0.7392339706420898,568.326544046402,None,569.1858761310577,None,570.1628711223602,570.5222392082214,570.1628711223602,570.5222392082214,569.1858761310577,None,569.1858761310577,None,569.1858761310577,None,300,300,1,True,286.60058975219727,-1.0,-1,574.3363721370697,None,2,icub,clamp,2021_Dec_21_0944,exp,2021.2.3,59.95280166837954,
right,go,1,0,1,0,3,2,20,3,574.8674411773682,None,1,0.8703150749206543,574.8674411773682,None,575.8505961894989,None,576.8353700637817,577.1911261081696,576.8353700637817,577.1911261081696,575.8505961894989,None,575.8505961894989,None,575.8505961894989,None,-1,-1,1,True,355.0987243652344,596.9741344451904,right,578.6709280014038,None,2,icub,clamp,2021_Dec_21_0944,exp,2021.2.3,59.95280166837954,
left,go,1,0,1,0,3,3,21,0,579.1733841896057,None,1,0.9259099960327148,579.1733841896057,None,580.2105071544647,None,581.2324411869049,581.580488204956,581.2324411869049,581.580488204956,580.2105071544647,None,580.2105071544647,None,580.2105071544647,None,-1,-1,1,True,282.83143043518066,504.3821334838867,left,582.8907041549683,None,2,icub,clamp,2021_Dec_21_0944,exp,2021.2.3,59.95280166837954,
right,go,1,0,1,0,3,4,22,4,583.3998491764069,None,1,1.0512640476226807,583.3998491764069,None,584.5579180717468,None,585.568076133728,585.91468501091,585.568076133728,585.91468501091,584.5579180717468,None,584.5579180717468,None,584.5579180717468,None,-1,-1,1,True,327.73780822753906,504.87208366394043,right,587.2686870098114,None,2,icub,clamp,2021_Dec_21_0944,exp,2021.2.3,59.95280166837954,
left,stop,1,0,1,0,3,5,23,2,587.7769570350647,None,1,1.3940989971160889,587.7769570350647,None,589.2462351322174,None,590.2654831409454,590.6113920211792,590.2654831409454,590.6113920211792,589.2462351322174,None,589.2462351322174,None,589.2462351322174,None,300,350,1,True,364.3012046813965,-1.0,-1,594.5014090538025,None,2,icub,clamp,2021_Dec_21_0944,exp,2021.2.3,59.95280166837954,
left,stop,1,0,1,0,4,0,24,2,595.0332260131836,None,1,0.7784359455108643,595.0332260131836,None,595.8942461013794,None,596.881224155426,597.2267789840698,596.881224155426,597.2267789840698,595.8942461013794,None,595.8942461013794,None,595.8942461013794,None,350,350,1,True,446.97022438049316,-1.0,-1,601.205057144165,None,2,icub,clamp,2021_Dec_21_0944,exp,2021.2.3,59.95280166837954,
left,go,1,0,1,0,4,1,25,1,601.7361581325531,None,1,0.5787100791931152,601.7361581325531,None,602.4100301265717,None,603.3931829929352,603.7427880764008,603.3931829929352,603.7427880764008,602.4100301265717,None,602.4100301265717,None,602.4100301265717,None,-1,-1,1,True,650.1955986022949,581.6619396209717,left,605.5089530944824,None,2,icub,clamp,2021_Dec_21_0944,exp,2021.2.3,59.95280166837954,
left,go,1,0,1,0,4,2,26,0,606.0251710414886,None,1,1.0607879161834717,606.0251710414886,None,607.1910982131958,None,608.2075490951538,608.555144071579,608.2075490951538,608.555144071579,607.1910982131958,None,607.1910982131958,None,607.1910982131958,None,-1,-1,1,True,232.55348205566406,545.8872318267822,left,609.8632311820984,None,2,icub,clamp,2021_Dec_21_0944,exp,2021.2.3,59.95280166837954,
right,go,1,0,1,0,4,3,27,3,610.3818521499634,None,1,2.372202157974243,610.3818521499634,None,612.8343861103058,None,613.8318500518799,614.1945950984955,613.8318500518799,614.1945950984955,612.8343861103058,None,612.8343861103058,None,612.8343861103058,None,-1,-1,1,True,370.7315921783447,434.5715045928955,right,615.5235440731049,None,2,icub,clamp,2021_Dec_21_0944,exp,2021.2.3,59.95280166837954,
right,go,1,0,1,0,4,4,28,3,616.0380430221558,None,1,0.9859600067138672,616.0380430221558,None,617.1390690803528,None,618.13658618927,618.4723701477051,618.13658618927,618.4723701477051,617.1390690803528,None,617.1390690803528,None,617.1390690803528,None,-1,-1,1,True,357.73229598999023,595.6430435180664,right,619.98246717453,None,2,icub,clamp,2021_Dec_21_0944,exp,2021.2.3,59.95280166837954,
right,go,1,0,1,0,4,5,29,3,620.5040860176086,None,1,1.0190958976745605,620.5040860176086,None,621.6035151481628,None,622.6252920627594,622.9718260765076,622.6252920627594,622.9718260765076,621.6035151481628,None,621.6035151481628,None,621.6035151481628,None,-1,-1,1,True,383.42833518981934,488.7564182281494,right,624.3552792072296,None,2,icub,clamp,2021_Dec_21_0944,exp,2021.2.3,59.95280166837954,
left,stop,1,0,1,0,5,0,30,2,624.8662991523743,None,1,0.8790409564971924,624.8662991523743,None,625.8460052013397,None,626.8719952106476,627.1952610015869,626.8719952106476,627.1952610015869,625.8460052013397,None,625.8460052013397,None,625.8460052013397,None,400,350,0,True,385.83993911743164,506.78229331970215,left,628.6217300891876,None,2,icub,clamp,2021_Dec_21_0944,exp,2021.2.3,59.95280166837954,
left,go,1,0,1,0,5,1,31,1,629.1388130187988,None,1,1.1005549430847168,629.1388130187988,None,630.3639061450958,None,631.398362159729,631.7459361553192,631.398362159729,631.7459361553192,630.3639061450958,None,630.3639061450958,None,630.3639061450958,None,-1,-1,1,True,299.5166778564453,731.6441535949707,left,633.2906610965729,None,2,icub,clamp,2021_Dec_21_0944,exp,2021.2.3,59.95280166837954,
right,stop,1,0,1,0,5,2,32,5,633.8078241348267,None,1,4.145526170730591,633.8078241348267,None,638.0623390674591,None,639.0983831882477,639.4538700580597,639.0983831882477,639.4538700580597,638.0623390674591,None,638.0623390674591,None,638.0623390674591,None,350,350,1,True,343.59264373779297,-1.0,-1,643.3126010894775,None,2,icub,clamp,2021_Dec_21_0944,exp,2021.2.3,59.95280166837954,
left,stop,1,0,1,0,5,3,33,2,643.844122171402,None,1,0.7714519500732422,643.844122171402,None,644.7039179801941,None,645.6840100288391,646.0335400104523,645.6840100288391,646.0335400104523,644.7039179801941,None,644.7039179801941,None,644.7039179801941,None,350,400,1,True,348.5410213470459,-1.0,-1,649.9354341030121,None,2,icub,clamp,2021_Dec_21_0944,exp,2021.2.3,59.95280166837954,
left,stop,1,0,1,0,5,4,34,2,650.4682459831238,None,1,0.8243629932403564,650.4682459831238,None,651.3855791091919,None,652.3689410686493,652.7168970108032,652.3689410686493,652.7168970108032,651.3855791091919,None,651.3855791091919,None,651.3855791091919,None,400,400,1,True,206.146240234375,-1.0,-1,656.4540882110596,None,2,icub,clamp,2021_Dec_21_0944,exp,2021.2.3,59.95280166837954,
left,go,1,0,1,0,5,5,35,0,656.9877262115479,None,1,0.5738639831542969,656.9877262115479,None,657.6618130207062,None,658.645651102066,658.9806051254272,658.645651102066,658.9806051254272,657.6618130207062,None,657.6618130207062,None,657.6618130207062,None,-1,-1,1,True,296.7395782470703,934.593915939331,left,660.7644920349121,None,2,icub,clamp,2021_Dec_21_0944,exp,2021.2.3,59.95280166837954,
left,go,1,0,1,0,6,0,36,0,661.2789421081543,None,1,1.349743127822876,661.2789421081543,None,662.7520020008087,None,663.7550711631775,664.0941340923309,663.7550711631775,664.0941340923309,662.7520020008087,None,662.7520020008087,None,662.7520020008087,None,-1,-1,1,True,278.94020080566406,622.4765777587891,left,665.5552639961243,None,2,icub,clamp,2021_Dec_21_0944,exp,2021.2.3,59.95280166837954,
right,go,1,0,1,0,6,1,37,4,666.0837471485138,None,1,1.133328914642334,666.0837471485138,None,667.29771900177,None,668.282888174057,668.6426010131836,668.282888174057,668.6426010131836,667.29771900177,None,667.29771900177,None,667.29771900177,None,-1,-1,1,True,297.82676696777344,706.4807415008545,right,670.1727650165558,None,2,icub,clamp,2021_Dec_21_0944,exp,2021.2.3,59.95280166837954,
left,go,1,0,1,0,6,2,38,0,670.6730411052704,None,1,0.8447117805480957,670.6730411052704,None,671.6459801197052,None,672.6601440906525,672.9959981441498,672.6601440906525,672.9959981441498,671.6459801197052,None,671.6459801197052,None,671.6459801197052,None,-1,-1,1,True,386.0340118408203,538.7563705444336,left,674.4752490520477,None,2,icub,clamp,2021_Dec_21_0944,exp,2021.2.3,59.95280166837954,
right,go,1,0,1,0,6,3,39,4,674.9910960197449,None,1,0.9057269096374512,674.9910960197449,None,675.9720480442047,None,676.9727990627289,677.327789068222,676.9727990627289,677.327789068222,675.9720480442047,None,675.9720480442047,None,675.9720480442047,None,-1,-1,1,True,312.3750686645508,565.2875900268555,right,678.7301571369171,None,2,icub,clamp,2021_Dec_21_0944,exp,2021.2.3,59.95280166837954,
left,go,1,0,1,0,6,4,40,0,679.2680671215057,None,1,0.7437701225280762,679.2680671215057,None,680.1177082061768,None,681.135735988617,681.4954180717468,681.135735988617,681.4954180717468,680.1177082061768,None,680.1177082061768,None,680.1177082061768,None,-1,-1,1,True,301.4190196990967,483.7203025817871,left,682.7997300624847,None,2,icub,clamp,2021_Dec_21_0944,exp,2021.2.3,59.95280166837954,
right,stop,1,0,1,0,6,5,41,5,683.3064610958099,None,1,0.7084550857543945,683.3064610958099,None,684.0951910018921,None,685.1034820079803,685.4680881500244,685.1034820079803,685.4680881500244,684.0951910018921,None,684.0951910018921,None,684.0951910018921,None,450,400,0,True,130.69820404052734,596.717357635498,right,686.7273111343384,None,2,icub,clamp,2021_Dec_21_0944,exp,2021.2.3,59.95280166837954,
right,stop,1,0,1,0,7,0,42,5,687.2360801696777,None,1,1.6889750957489014,687.2360801696777,None,689.0158591270447,None,690.0472660064697,690.4032120704651,690.0472660064697,690.4032120704651,689.0158591270447,None,689.0158591270447,None,689.0158591270447,None,450,350,1,True,324.2647647857666,-1.0,-1,694.2236170768738,None,2,icub,clamp,2021_Dec_21_0944,exp,2021.2.3,59.95280166837954,
left,stop,1,0,1,0,7,1,43,2,694.7184040546417,None,1,0.7260189056396484,694.7184040546417,None,695.5781500339508,None,696.5532910823822,696.9088912010193,696.5532910823822,696.9088912010193,695.5781500339508,None,695.5781500339508,None,695.5781500339508,None,450,400,1,True,307.6348304748535,-1.0,-1,700.7830610275269,None,2,icub,clamp,2021_Dec_21_0944,exp,2021.2.3,59.95280166837954,
left,stop,1,0,1,0,7,2,44,2,701.3139901161194,None,1,0.4654719829559326,701.3139901161194,None,701.8648700714111,None,702.8397400379181,703.1960661411285,702.8397400379181,703.1960661411285,701.8648700714111,None,701.8648700714111,None,701.8648700714111,None,500,400,1,True,276.5359878540039,-1.0,-1,707.0263910293579,None,2,icub,clamp,2021_Dec_21_0944,exp,2021.2.3,59.95280166837954,
right,stop,1,0,1,0,7,3,45,5,707.5582621097565,None,1,0.6061680316925049,707.5582621097565,None,708.294723033905,None,709.2780470848083,709.6020681858063,709.2780470848083,709.6020681858063,708.294723033905,None,708.294723033905,None,708.294723033905,None,550,400,1,True,391.8576240539551,-1.0,-1,713.5631241798401,None,2,icub,clamp,2021_Dec_21_0944,exp,2021.2.3,59.95280166837954,
right,go,1,0,1,0,7,4,46,4,714.0957322120667,None,1,0.7826690673828125,714.0957322120667,None,715.0177481174469,None,716.0003621578217,716.360044002533,716.0003621578217,716.360044002533,715.0177481174469,None,715.0177481174469,None,715.0177481174469,None,-1,-1,1,True,703.6504745483398,665.4126644134521,right,718.2536571025848,None,2,icub,clamp,2021_Dec_21_0944,exp,2021.2.3,59.95280166837954,
left,stop,1,0,1,0,7,5,47,2,718.7539401054382,None,1,0.9236719608306885,718.7539401054382,None,719.7920250892639,None,720.7866630554199,721.1320190429688,720.7866630554199,721.1320190429688,719.7920250892639,None,719.7920250892639,None,719.7920250892639,None,550,450,0,True,337.18276023864746,662.4665260314941,left,722.7061171531677,None,2,icub,clamp,2021_Dec_21_0944,exp,2021.2.3,59.95280166837954,
left,go,1,0,1,0,8,0,48,1,723.2175290584564,None,1,1.4622139930725098,723.2175290584564,None,724.8084712028503,None,725.8262491226196,726.1917819976807,725.8262491226196,726.1917819976807,724.8084712028503,None,724.8084712028503,None,724.8084712028503,None,-1,-1,1,True,306.6723346710205,835.9434604644775,left,727.8532221317291,None,2,icub,clamp,2021_Dec_21_0944,exp,2021.2.3,59.95280166837954,
right,go,1,0,1,0,8,1,49,3,728.3707389831543,None,1,0.921191930770874,728.3707389831543,None,729.402820110321,None,730.415580034256,730.7705581188202,730.415580034256,730.7705581188202,729.402820110321,None,729.402820110321,None,729.402820110321,None,-1,-1,1,True,334.93924140930176,526.1294841766357,right,732.1623702049255,None,2,icub,clamp,2021_Dec_21_0944,exp,2021.2.3,59.95280166837954,
right,stop,1,0,1,0,8,2,50,5,732.6918540000916,None,1,0.6729018688201904,732.6918540000916,None,733.4857051372528,None,734.496649980545,734.8459491729736,734.496649980545,734.8459491729736,733.4857051372528,None,733.4857051372528,None,733.4857051372528,None,500,450,1,True,354.18152809143066,-1.0,-1,738.7238931655884,None,2,icub,clamp,2021_Dec_21_0944,exp,2021.2.3,59.95280166837954,
left,go,1,0,1,0,8,3,51,0,739.2552001476288,None,1,1.8381798267364502,739.2552001476288,None,741.2256860733032,None,742.2352480888367,742.5786290168762,742.2352480888367,742.5786290168762,741.2256860733032,None,741.2256860733032,None,741.2256860733032,None,-1,-1,1,True,330.1548957824707,664.1724109649658,left,744.1062400341034,None,2,icub,clamp,2021_Dec_21_0944,exp,2021.2.3,59.95280166837954,
right,go,1,0,1,0,8,4,52,3,744.6269431114197,None,1,0.9541659355163574,744.6269431114197,None,745.6667821407318,None,746.6839981079102,747.027086019516,746.6839981079102,747.027086019516,745.6667821407318,None,745.6667821407318,None,745.6667821407318,None,-1,-1,1,True,557.3272705078125,497.5323677062988,right,748.6123390197754,None,2,icub,clamp,2021_Dec_21_0944,exp,2021.2.3,59.95280166837954,
left,go,1,0,1,0,8,5,53,0,749.1447319984436,None,1,0.5777289867401123,749.1447319984436,None,749.8129060268402,None,750.8233230113983,751.181006193161,750.8233230113983,751.181006193161,749.8129060268402,None,749.8129060268402,None,749.8129060268402,None,-1,-1,1,True,390.6540870666504,565.5057430267334,left,752.6693301200867,None,2,icub,clamp,2021_Dec_21_0944,exp,2021.2.3,59.95280166837954,
right,go,1,0,1,0,9,0,54,4,753.1992030143738,None,1,0.7693178653717041,753.1992030143738,None,754.054044008255,None,755.0657970905304,755.4279091358185,755.0657970905304,755.4279091358185,754.054044008255,None,754.054044008255,None,754.054044008255,None,-1,-1,1,True,453.6278247833252,606.5614223480225,right,757.0062830448151,None,2,icub,clamp,2021_Dec_21_0944,exp,2021.2.3,59.95280166837954,
left,go,1,0,1,0,9,1,55,0,757.5233490467072,None,1,1.0615968704223633,757.5233490467072,None,758.6852371692657,None,759.6919100284576,760.0628139972687,759.6919100284576,760.0628139972687,758.6852371692657,None,758.6852371692657,None,758.6852371692657,None,-1,-1,1,True,381.1838626861572,495.82672119140625,left,761.4542241096497,None,2,icub,clamp,2021_Dec_21_0944,exp,2021.2.3,59.95280166837954,
left,go,1,0,1,0,9,2,56,1,761.9723200798035,None,1,0.8011651039123535,761.9723200798035,None,762.885311126709,None,763.8774271011353,764.2373549938202,763.8774271011353,764.2373549938202,762.885311126709,None,762.885311126709,None,762.885311126709,None,-1,-1,0,False,358.51168632507324,808.2623481750488,right,765.9424290657043,None,2,icub,clamp,2021_Dec_21_0944,exp,2021.2.3,59.95280166837954,
left,go,1,0,1,0,9,3,57,1,766.473237991333,None,1,0.7995119094848633,766.473237991333,None,767.3860030174255,None,768.4034821987152,768.776593208313,768.4034821987152,768.776593208313,767.3860030174255,None,767.3860030174255,None,767.3860030174255,None,-1,-1,1,True,416.20540618896484,611.2837791442871,left,770.2962601184845,None,2,icub,clamp,2021_Dec_21_0944,exp,2021.2.3,59.95280166837954,
right,go,1,0,1,0,9,4,58,4,770.8100941181183,None,1,0.6287050247192383,770.8100941181183,None,771.5397851467133,None,772.5687952041626,772.924310207367,772.5687952041626,772.924310207367,771.5397851467133,None,771.5397851467133,None,771.5397851467133,None,-1,-1,1,True,417.27614402770996,544.2821979522705,right,774.3893880844116,None,2,icub,clamp,2021_Dec_21_0944,exp,2021.2.3,59.95280166837954,
left,go,1,0,1,0,9,5,59,0,774.9263319969177,None,1,0.7884888648986816,774.9263319969177,None,775.8391261100769,None,776.8679912090302,777.2227740287781,776.8679912090302,777.2227740287781,775.8391261100769,None,775.8391261100769,None,775.8391261100769,None,-1,-1,1,True,351.4981269836426,574.8226642608643,left,778.6344301700592,None,2,icub,clamp,2021_Dec_21_0944,exp,2021.2.3,59.95280166837954,
left,go,1,0,1,0,10,0,60,0,779.1502311229706,None,1,0.9945251941680908,779.1502311229706,None,780.2506651878357,None,781.2752830982208,781.6374402046204,781.2752830982208,781.6374402046204,780.2506651878357,None,780.2506651878357,None,780.2506651878357,None,-1,-1,1,True,541.8293476104736,555.2752017974854,left,783.2265121936798,None,2,icub,clamp,2021_Dec_21_0944,exp,2021.2.3,59.95280166837954,
left,stop,1,0,1,0,10,1,61,2,783.7400760650635,None,1,0.7566990852355957,783.7400760650635,None,784.5914590358734,None,785.5863511562347,785.9451401233673,785.5863511562347,785.9451401233673,784.5914590358734,None,784.5914590358734,None,784.5914590358734,None,500,500,0,True,395.3666687011719,636.5337371826172,left,787.5162811279297,None,2,icub,clamp,2021_Dec_21_0944,exp,2021.2.3,59.95280166837954,
right,go,1,0,1,0,10,2,62,4,788.0137300491333,None,1,0.9948060512542725,788.0137300491333,None,789.1058990955353,None,790.1398990154266,790.4868280887604,790.1398990154266,790.4868280887604,789.1058990955353,None,789.1058990955353,None,789.1058990955353,None,-1,-1,1,True,436.1133575439453,641.4663791656494,right,792.0914280414581,None,2,icub,clamp,2021_Dec_21_0944,exp,2021.2.3,59.95280166837954,
left,go,1,0,1,0,10,3,63,1,792.5920422077179,None,1,0.9056179523468018,792.5920422077179,None,793.6257660388947,None,794.6318020820618,794.989972114563,794.6318020820618,794.989972114563,793.6257660388947,None,793.6257660388947,None,793.6257660388947,None,-1,-1,1,True,467.93580055236816,713.3462429046631,left,796.6987771987915,None,2,icub,clamp,2021_Dec_21_0944,exp,2021.2.3,59.95280166837954,
left,stop,1,0,1,0,10,4,64,2,797.2110199928284,None,1,0.6308729648590088,797.2110199928284,None,797.9425880908966,None,798.9675180912018,799.3289752006531,798.9675180912018,799.3289752006531,797.9425880908966,None,797.9425880908966,None,797.9425880908966,None,450,500,1,True,344.8188304901123,-1.0,-1,803.1926431655884,None,2,icub,clamp,2021_Dec_21_0944,exp,2021.2.3,59.95280166837954,
right,go,1,0,1,0,10,5,65,4,803.7241551876068,None,1,0.9442040920257568,803.7241551876068,None,804.7686741352081,None,805.7506070137024,806.1069400310516,805.7506070137024,806.1069400310516,804.7686741352081,None,804.7686741352081,None,804.7686741352081,None,-1,-1,1,True,330.6915760040283,1012.9415988922119,right,807.976900100708,None,2,icub,clamp,2021_Dec_21_0944,exp,2021.2.3,59.95280166837954,
right,go,1,0,1,0,11,0,66,3,808.4816219806671,None,1,0.7687830924987793,808.4816219806671,None,809.3358390331268,None,810.3625299930573,810.6984741687775,810.3625299930573,810.6984741687775,809.3358390331268,None,809.3358390331268,None,809.3358390331268,None,-1,-1,1,True,404.0548801422119,671.5357303619385,right,812.3139610290527,None,2,icub,clamp,2021_Dec_21_0944,exp,2021.2.3,59.95280166837954,
left,stop,1,0,1,0,11,1,67,2,812.8215391635895,None,1,0.6710240840911865,812.8215391635895,None,813.6129970550537,None,814.5997321605682,814.9585070610046,814.5997321605682,814.9585070610046,813.6129970550537,None,813.6129970550537,None,813.6129970550537,None,500,500,0,True,434.54480171203613,579.5068740844727,left,816.5043931007385,None,2,icub,clamp,2021_Dec_21_0944,exp,2021.2.3,59.95280166837954,
right,go,1,0,1,0,11,2,68,3,817.0177850723267,None,1,0.9646561145782471,817.0177850723267,None,818.0581212043762,None,819.0501310825348,819.4136061668396,819.0501310825348,819.4136061668396,818.0581212043762,None,818.0581212043762,None,818.0581212043762,None,-1,-1,1,True,420.4425811767578,821.0015296936035,right,821.1792461872101,None,2,icub,clamp,2021_Dec_21_0944,exp,2021.2.3,59.95280166837954,
left,go,1,0,1,0,11,3,69,0,821.6774470806122,None,1,0.902076005935669,821.6774470806122,None,822.6549592018127,None,823.6739230155945,824.0271511077881,823.6739230155945,824.0271511077881,822.6549592018127,None,822.6549592018127,None,822.6549592018127,None,-1,-1,1,True,353.76477241516113,858.7872982025146,left,825.7617530822754,None,2,icub,clamp,2021_Dec_21_0944,exp,2021.2.3,59.95280166837954,
left,go,1,0,1,0,11,4,70,0,826.2976660728455,None,1,3.082868814468384,826.2976660728455,None,829.5006370544434,None,830.515387058258,830.8592660427094,830.515387058258,830.8592660427094,829.5006370544434,None,829.5006370544434,None,829.5006370544434,None,-1,-1,1,True,393.9542770385742,806.6747188568115,left,832.6118900775909,None,2,icub,clamp,2021_Dec_21_0944,exp,2021.2.3,59.95280166837954,
right,go,1,0,1,0,11,5,71,3,833.1280450820923,None,1,1.0486199855804443,833.1280450820923,None,834.2520861625671,None,835.2849872112274,835.6418399810791,835.2849872112274,835.6418399810791,834.2520861625671,None,834.2520861625671,None,834.2520861625671,None,-1,-1,1,True,374.9651908874512,804.1541576385498,right,837.3342010974884,None,2,icub,clamp,2021_Dec_21_0944,exp,2021.2.3,59.95280166837954,
right,stop,1,0,1,0,12,0,72,5,837.8441061973572,None,1,0.77059006690979,837.8441061973572,None,838.7002141475677,None,839.7103002071381,840.0651381015778,839.7103002071381,840.0651381015778,838.7002141475677,None,838.7002141475677,None,838.7002141475677,None,450,500,1,True,339.94388580322266,-1.0,-1,843.9160561561584,None,2,icub,clamp,2021_Dec_21_0944,exp,2021.2.3,59.95280166837954,
right,stop,1,0,1,0,12,1,73,5,844.4484980106354,None,1,0.6135668754577637,844.4484980106354,None,845.1866731643677,None,846.1708409786224,846.4928901195526,846.1708409786224,846.4928901195526,845.1866731643677,None,845.1866731643677,None,845.1866731643677,None,450,550,1,True,330.472469329834,-1.0,-1,850.3910310268402,None,2,icub,clamp,2021_Dec_21_0944,exp,2021.2.3,59.95280166837954,
left,go,1,0,1,0,12,2,74,1,850.9239451885223,None,1,0.8950910568237305,850.9239451885223,None,851.9087650775909,None,852.8849840164185,853.2318999767303,852.8849840164185,853.2318999767303,851.9087650775909,None,851.9087650775909,None,851.9087650775909,None,-1,-1,1,True,353.8501262664795,1055.654764175415,left,855.2064549922943,None,2,icub,clamp,2021_Dec_21_0944,exp,2021.2.3,59.95280166837954,
right,go,1,0,1,0,12,3,75,4,855.7240431308746,None,1,1.2732739448547363,855.7240431308746,None,857.0777940750122,None,858.0830590724945,858.4350020885468,858.0830590724945,858.4350020885468,857.0777940750122,None,857.0777940750122,None,857.0777940750122,None,-1,-1,1,True,339.5993709564209,781.3279628753662,right,860.0848801136017,None,2,icub,clamp,2021_Dec_21_0944,exp,2021.2.3,59.95280166837954,
right,go,1,0,1,0,12,4,76,3,860.5962641239166,None,1,0.7801370620727539,860.5962641239166,None,861.5092561244965,None,862.5059311389923,862.8466839790344,862.5059311389923,862.8466839790344,861.5092561244965,None,861.5092561244965,None,861.5092561244965,None,-1,-1,1,True,398.8621234893799,544.6615219116211,right,864.3409450054169,None,2,icub,clamp,2021_Dec_21_0944,exp,2021.2.3,59.95280166837954,
left,go,1,0,1,0,12,5,77,1,864.8543980121613,None,1,0.6541619300842285,864.8543980121613,None,865.6417810916901,None,866.6405520439148,866.9922771453857,866.6405520439148,866.9922771453857,865.6417810916901,None,865.6417810916901,None,865.6417810916901,None,-1,-1,1,True,325.30856132507324,755.6726932525635,left,868.5959169864655,None,2,icub,clamp,2021_Dec_21_0944,exp,2021.2.3,59.95280166837954,
left,go,2,0,2,0,0,0,0,1,879.8151080608368,None,1,1.37552809715271,879.8151080608368,None,881.2711260318756,None,None,None,None,None,881.2711260318756,None,881.2711260318756,None,881.2711260318756,None,,,0,False,-1.0,-1.0,-1,881.390631198883,None,2,icub,clamp,2021_Dec_21_0944,exp,2021.2.3,59.95280166837954,
left,stop,2,0,2,0,0,1,1,2,881.9132862091064,None,1,0.3767688274383545,881.9132862091064,None,882.401673078537,None,883.38889503479,883.7412850856781,883.38889503479,883.7412850856781,882.401673078537,None,882.401673078537,None,882.401673078537,None,450,600,1,True,415.8635139465332,-1.0,-1,887.6895949840546,None,2,icub,clamp,2021_Dec_21_0944,exp,2021.2.3,59.95280166837954,
right,go,2,0,2,0,0,2,2,3,888.183128118515,None,1,1.2308590412139893,888.183128118515,None,889.5366611480713,None,890.52605509758,890.8536891937256,890.52605509758,890.8536891937256,889.5366611480713,None,889.5366611480713,None,889.5366611480713,None,-1,-1,1,True,347.38707542419434,543.1113243103027,right,892.309005022049,None,2,icub,clamp,2021_Dec_21_0944,exp,2021.2.3,59.95280166837954,
left,stop,2,0,2,0,0,3,3,2,892.8288350105286,None,1,0.6844019889831543,892.8288350105286,None,893.6197550296783,None,894.6280100345612,894.9756782054901,894.6280100345612,894.9756782054901,893.6197550296783,None,893.6197550296783,None,893.6197550296783,None,500,600,0,True,325.52289962768555,619.518518447876,left,896.4648270606995,None,2,icub,clamp,2021_Dec_21_0944,exp,2021.2.3,59.95280166837954,
right,go,2,0,2,0,0,4,4,3,896.9787971973419,None,1,0.8055930137634277,896.9787971973419,None,897.891520023346,None,898.8901391029358,899.2298099994659,898.8901391029358,899.2298099994659,897.891520023346,None,897.891520023346,None,897.891520023346,None,-1,-1,1,True,444.4117546081543,888.8657093048096,right,901.1340520381927,None,2,icub,clamp,2021_Dec_21_0944,exp,2021.2.3,59.95280166837954,
left,stop,2,0,2,0,0,5,5,2,901.6466960906982,None,1,0.6948821544647217,901.6466960906982,None,902.434662103653,None,903.4373931884766,903.7913861274719,903.4373931884766,903.7913861274719,902.434662103653,None,902.434662103653,None,902.434662103653,None,450,600,1,True,405.98034858703613,-1.0,-1,907.7222831249237,None,2,icub,clamp,2021_Dec_21_0944,exp,2021.2.3,59.95280166837954,
right,go,2,0,2,0,1,0,6,3,908.2546970844269,None,1,1.286344051361084,908.2546970844269,None,909.6724400520325,None,910.6551170349121,911.0079581737518,910.6551170349121,911.0079581737518,909.6724400520325,None,909.6724400520325,None,909.6724400520325,None,-1,-1,1,True,106.88543319702148,869.5931434631348,right,912.5187401771545,None,2,icub,clamp,2021_Dec_21_0944,exp,2021.2.3,59.95280166837954,
right,go,2,0,2,0,1,1,7,3,913.0291969776154,None,1,0.8698830604553223,913.0291969776154,None,914.0049459934235,None,915.0125050544739,915.3618371486664,915.0125050544739,915.3618371486664,914.0049459934235,None,914.0049459934235,None,914.0049459934235,None,-1,-1,1,True,380.4812431335449,666.8283939361572,right,916.9438591003418,None,2,icub,clamp,2021_Dec_21_0944,exp,2021.2.3,59.95280166837954,
right,go,2,0,2,0,1,2,8,4,917.4621031284332,None,1,0.7667479515075684,917.4621031284332,None,918.3145201206207,None,919.3419420719147,919.6934640407562,919.3419420719147,919.6934640407562,918.3145201206207,None,918.3145201206207,None,918.3145201206207,None,-1,-1,1,True,427.4134635925293,600.1911163330078,right,921.2461152076721,None,2,icub,clamp,2021_Dec_21_0944,exp,2021.2.3,59.95280166837954,
left,go,2,0,2,0,1,3,9,1,921.7722342014313,None,1,0.5955507755279541,921.7722342014313,None,922.4957900047302,None,923.489734172821,923.8312351703644,923.489734172821,923.8312351703644,922.4957900047302,None,922.4957900047302,None,922.4957900047302,None,-1,-1,1,True,437.70599365234375,1044.640302658081,left,925.8859281539917,None,2,icub,clamp,2021_Dec_21_0944,exp,2021.2.3,59.95280166837954,
right,stop,2,0,2,0,1,4,10,5,926.400398015976,None,1,0.9139909744262695,926.400398015976,None,927.43732213974,None,928.4431471824646,928.8023099899292,928.4431471824646,928.8023099899292,927.43732213974,None,927.43732213974,None,927.43732213974,None,500,600,0,True,366.86062812805176,596.1763858795166,right,930.2859079837799,None,2,icub,clamp,2021_Dec_21_0944,exp,2021.2.3,59.95280166837954,
right,go,2,0,2,0,1,5,11,3,930.7983410358429,None,1,1.4958369731903076,930.7983410358429,None,932.3955249786377,None,933.3981580734253,933.7541780471802,933.3981580734253,933.7541780471802,932.3955249786377,None,932.3955249786377,None,932.3955249786377,None,-1,-1,1,True,365.4360771179199,999.302864074707,right,935.6544291973114,None,2,icub,clamp,2021_Dec_21_0944,exp,2021.2.3,59.95280166837954,
left,go,2,0,2,0,2,0,12,0,936.1719210147858,None,1,0.8041470050811768,936.1719210147858,None,937.0873050689697,None,938.0801200866699,938.439581155777,938.0801200866699,938.439581155777,937.0873050689697,None,937.0873050689697,None,937.0873050689697,None,-1,-1,1,True,313.73095512390137,964.606761932373,left,940.2490570545197,None,2,icub,clamp,2021_Dec_21_0944,exp,2021.2.3,59.95280166837954,
left,go,2,0,2,0,2,1,13,1,940.7541751861572,None,1,0.8279218673706055,940.7541751861572,None,941.6674110889435,None,942.6627299785614,943.0250971317291,942.6627299785614,943.0250971317291,941.6674110889435,None,941.6674110889435,None,941.6674110889435,None,-1,-1,1,True,386.25359535217285,715.6808376312256,left,944.6621971130371,None,2,icub,clamp,2021_Dec_21_0944,exp,2021.2.3,59.95280166837954,
left,go,2,0,2,0,2,2,14,1,945.1669661998749,None,1,0.7625811100006104,945.1669661998749,None,946.0202610492706,None,947.0336651802063,947.3696911334991,947.0336651802063,947.3696911334991,946.0202610492706,None,946.0202610492706,None,946.0202610492706,None,-1,-1,1,True,365.4649257659912,936.8460178375244,left,949.1908581256866,None,2,icub,clamp,2021_Dec_21_0944,exp,2021.2.3,59.95280166837954,
right,go,2,0,2,0,2,3,15,4,949.7080321311951,None,1,1.109292984008789,949.7080321311951,None,950.9270861148834,None,951.9285001754761,952.2953600883484,951.9285001754761,952.2953600883484,950.9270861148834,None,950.9270861148834,None,950.9270861148834,None,-1,-1,1,True,400.5868434906006,592.984676361084,right,953.8138990402222,None,2,icub,clamp,2021_Dec_21_0944,exp,2021.2.3,59.95280166837954,
left,go,2,0,2,0,2,4,16,0,954.3404431343079,None,1,0.5487570762634277,954.3404431343079,None,954.9938189983368,None,956.015949010849,956.3784811496735,956.015949010849,956.3784811496735,954.9938189983368,None,954.9938189983368,None,954.9938189983368,None,-1,-1,1,True,425.1241683959961,752.8531551361084,left,958.0458941459656,None,2,icub,clamp,2021_Dec_21_0944,exp,2021.2.3,59.95280166837954,
left,stop,2,0,2,0,2,5,17,2,958.5461502075195,None,1,1.0588960647583008,958.5461502075195,None,959.7110321521759,None,960.7464351654053,961.1020970344543,960.7464351654053,961.1020970344543,959.7110321521759,None,959.7110321521759,None,959.7110321521759,None,500,550,1,True,385.12182235717773,-1.0,-1,964.9766850471497,None,2,icub,clamp,2021_Dec_21_0944,exp,2021.2.3,59.95280166837954,
left,stop,2,0,2,0,3,0,18,2,965.5101292133331,None,1,0.8366720676422119,965.5101292133331,None,966.4320499897003,None,967.4057130813599,967.7602481842041,967.4057130813599,967.7602481842041,966.4320499897003,None,966.4320499897003,None,966.4320499897003,None,550,550,1,True,442.66510009765625,-1.0,-1,971.7507081031799,None,2,icub,clamp,2021_Dec_21_0944,exp,2021.2.3,59.95280166837954,
right,stop,2,0,2,0,3,1,19,5,972.2820250988007,None,1,0.7708148956298828,972.2820250988007,None,973.144248008728,None,974.1446101665497,974.4968740940094,974.1446101665497,974.4968740940094,973.144248008728,None,973.144248008728,None,973.144248008728,None,600,550,1,True,373.3065128326416,-1.0,-1,978.3984680175781,None,2,icub,clamp,2021_Dec_21_0944,exp,2021.2.3,59.95280166837954,
left,go,2,0,2,0,3,2,20,1,978.930675983429,None,1,0.40799713134765625,978.930675983429,None,979.4195611476898,None,980.3987340927124,980.7448551654816,980.3987340927124,980.7448551654816,979.4195611476898,None,979.4195611476898,None,979.4195611476898,None,-1,-1,1,True,554.434061050415,730.87477684021,left,982.5932970046997,None,2,icub,clamp,2021_Dec_21_0944,exp,2021.2.3,59.95280166837954,
left,go,2,0,2,0,3,3,21,1,983.1094319820404,None,1,1.0856359004974365,983.1094319820404,None,984.2755720615387,None,985.2655930519104,985.6164090633392,985.2655930519104,985.6164090633392,984.2755720615387,None,984.2755720615387,None,984.2755720615387,None,-1,-1,1,True,393.629789352417,914.5331382751465,left,987.4770531654358,None,2,icub,clamp,2021_Dec_21_0944,exp,2021.2.3,59.95280166837954,
right,stop,2,0,2,0,3,4,22,5,987.9849741458893,None,1,1.291018009185791,987.9849741458893,None,989.3958170413971,None,990.3962659835815,990.7474601268768,990.3962659835815,990.7474601268768,989.3958170413971,None,989.3958170413971,None,989.3958170413971,None,600,600,0,True,408.66684913635254,716.2275314331055,right,992.4080882072449,None,2,icub,clamp,2021_Dec_21_0944,exp,2021.2.3,59.95280166837954,
left,go,2,0,2,0,3,5,23,0,992.9184560775757,None,1,1.163757085800171,992.9184560775757,None,994.2038230895996,None,995.2278051376343,995.5787351131439,995.2278051376343,995.5787351131439,994.2038230895996,None,994.2038230895996,None,994.2038230895996,None,-1,-1,1,True,399.72543716430664,753.1993389129639,left,997.2702691555023,None,2,icub,clamp,2021_Dec_21_0944,exp,2021.2.3,59.95280166837954,
right,stop,2,0,2,0,4,0,24,5,997.7887480258942,None,1,0.9753270149230957,997.7887480258942,None,998.8871750831604,None,999.8887770175934,1000.2383902072906,999.8887770175934,1000.2383902072906,998.8871750831604,None,998.8871750831604,None,998.8871750831604,None,600,550,1,True,500.518798828125,-1.0,-1,1004.2632391452789,None,2,icub,clamp,2021_Dec_21_0944,exp,2021.2.3,59.95280166837954,
left,stop,2,0,2,0,4,1,25,2,1004.7961730957031,None,1,1.1326229572296143,1004.7961730957031,None,1006.0279121398926,None,1007.015869140625,1007.3793680667877,1007.015869140625,1007.3793680667877,1006.0279121398926,None,1006.0279121398926,None,1006.0279121398926,None,600,600,1,True,459.6078395843506,-1.0,-1,1011.3547670841217,None,2,icub,clamp,2021_Dec_21_0944,exp,2021.2.3,59.95280166837954,
right,go,2,0,2,0,4,2,26,3,1011.8865849971771,None,1,0.618088960647583,1011.8865849971771,None,1012.6229631900787,None,1013.6020021438599,1013.9531691074371,1013.6020021438599,1013.9531691074371,1012.6229631900787,None,1012.6229631900787,None,1012.6229631900787,None,-1,-1,1,True,461.15922927856445,828.9272785186768,right,1015.7738511562347,None,2,icub,clamp,2021_Dec_21_0944,exp,2021.2.3,59.95280166837954,
right,go,2,0,2,0,4,3,27,4,1016.2924029827118,None,1,0.8940029144287109,1016.2924029827118,None,1017.2684400081635,None,1018.298816204071,1018.658539056778,1018.298816204071,1018.658539056778,1017.2684400081635,None,1017.2684400081635,None,1017.2684400081635,None,-1,-1,1,True,785.876989364624,690.3610229492188,right,1020.6173210144043,None,2,icub,clamp,2021_Dec_21_0944,exp,2021.2.3,59.95280166837954,
right,go,2,0,2,0,4,4,28,4,1021.1371541023254,None,1,0.8319361209869385,1021.1371541023254,None,1022.0544481277466,None,1023.0581409931183,1023.4106330871582,1023.0581409931183,1023.4106330871582,1022.0544481277466,None,1022.0544481277466,None,1022.0544481277466,None,-1,-1,1,True,458.4543704986572,817.3797130584717,right,1025.1985430717468,None,2,icub,clamp,2021_Dec_21_0944,exp,2021.2.3,59.95280166837954,
left,stop,2,0,2,0,4,5,29,2,1025.7158961296082,None,1,0.9303731918334961,1025.7158961296082,None,1026.7561202049255,None,1027.7572710514069,1028.1212031841278,1027.7572710514069,1028.1212031841278,1026.7561202049255,None,1026.7561202049255,None,1026.7561202049255,None,650,600,1,True,268.73278617858887,-1.0,-1,1031.913514137268,None,2,icub,clamp,2021_Dec_21_0944,exp,2021.2.3,59.95280166837954,
left,stop,2,0,2,0,5,0,30,2,1032.4470040798187,None,1,0.380540132522583,1032.4470040798187,None,1032.9347879886627,None,1033.936942100525,1034.3015701770782,1033.936942100525,1034.3015701770782,1032.9347879886627,None,1032.9347879886627,None,1032.9347879886627,None,700,600,0,True,399.1405963897705,569.0968036651611,left,1035.8077261447906,None,2,icub,clamp,2021_Dec_21_0944,exp,2021.2.3,59.95280166837954,
right,go,2,0,2,0,5,1,31,4,1036.318638086319,None,1,0.9414198398590088,1036.318638086319,None,1037.3606941699982,None,1038.384041070938,1038.7438280582428,1038.384041070938,1038.7438280582428,1037.3606941699982,None,1037.3606941699982,None,1037.3606941699982,None,-1,-1,1,True,456.59422874450684,975.6677150726318,right,1040.6867761611938,None,2,icub,clamp,2021_Dec_21_0944,exp,2021.2.3,59.95280166837954,
left,go,2,0,2,0,5,2,32,0,1041.1838071346283,None,1,0.6182200908660889,1041.1838071346283,None,1041.9110171794891,None,1042.9279930591583,1043.2901561260223,1042.9279930591583,1043.2901561260223,1041.9110171794891,None,1041.9110171794891,None,1041.9110171794891,None,-1,-1,1,True,366.4581775665283,865.1778697967529,left,1045.0419390201569,None,2,icub,clamp,2021_Dec_21_0944,exp,2021.2.3,59.95280166837954,
right,stop,2,0,2,0,5,3,33,5,1045.551470041275,None,1,2.7846689224243164,1045.551470041275,None,1048.4555580615997,None,1049.46235704422,1049.8242771625519,1049.46235704422,1049.8242771625519,1048.4555580615997,None,1048.4555580615997,None,1048.4555580615997,None,650,600,0,True,422.5177764892578,726.7541885375977,right,1051.4949140548706,None,2,icub,clamp,2021_Dec_21_0944,exp,2021.2.3,59.95280166837954,
right,stop,2,0,2,0,5,4,34,5,1052.0112640857697,None,1,0.9847209453582764,1052.0112640857697,None,1053.111170053482,None,1054.1075780391693,1054.4732990264893,1054.1075780391693,1054.4732990264893,1053.111170053482,None,1053.111170053482,None,1053.111170053482,None,650,550,1,True,977.210283279419,-1.0,-1,1058.9931440353394,None,2,icub,clamp,2021_Dec_21_0944,exp,2021.2.3,59.95280166837954,
left,go,2,0,2,0,5,5,35,1,1059.487160205841,None,1,0.9543969631195068,1059.487160205841,None,1060.5326220989227,None,1061.5120470523834,1061.8646190166473,1061.5120470523834,1061.8646190166473,1060.5326220989227,None,1060.5326220989227,None,1060.5326220989227,None,-1,-1,1,True,283.41221809387207,924.5054721832275,left,1063.6433520317078,None,2,icub,clamp,2021_Dec_21_0944,exp,2021.2.3,59.95280166837954,
left,go,2,0,2,0,6,0,36,1,1064.163922071457,None,1,1.0188758373260498,1064.163922071457,None,1065.2685639858246,None,1066.2921240329742,1066.642335176468,1066.2921240329742,1066.642335176468,1065.2685639858246,None,1065.2685639858246,None,1065.2685639858246,None,-1,-1,1,True,265.643835067749,953.9833068847656,left,1068.3535540103912,None,2,icub,clamp,2021_Dec_21_0944,exp,2021.2.3,59.95280166837954,
right,go,2,0,2,0,6,1,37,3,1068.8550310134888,None,1,1.50689697265625,1068.8550310134888,None,1070.4526600837708,None,1071.4500851631165,1071.8037700653076,1071.4500851631165,1071.8037700653076,1070.4526600837708,None,1070.4526600837708,None,1070.4526600837708,None,-1,-1,1,True,344.0563678741455,901.8621444702148,right,1073.5829501152039,None,2,icub,clamp,2021_Dec_21_0944,exp,2021.2.3,59.95280166837954,
right,stop,2,0,2,0,6,2,38,5,1074.0948960781097,None,1,1.0459110736846924,1074.0948960781097,None,1075.2559711933136,None,1076.2852580547333,1076.6463780403137,1076.2852580547333,1076.6463780403137,1075.2559711933136,None,1075.2559711933136,None,1075.2559711933136,None,650,600,1,True,379.8971176147461,-1.0,-1,1080.5166079998016,None,2,icub,clamp,2021_Dec_21_0944,exp,2021.2.3,59.95280166837954,
right,stop,2,0,2,0,6,3,39,5,1081.0478010177612,None,1,0.545727014541626,1081.0478010177612,None,1081.7214941978455,None,1082.7181379795074,1083.0694551467896,1082.7181379795074,1083.0694551467896,1081.7214941978455,None,1081.7214941978455,None,1081.7214941978455,None,650,650,1,True,324.4204521179199,-1.0,-1,1086.9249210357666,None,2,icub,clamp,2021_Dec_21_0944,exp,2021.2.3,59.95280166837954,
right,go,2,0,2,0,6,4,40,4,1087.4577779769897,None,1,1.8637158870697021,1087.4577779769897,None,1089.4338710308075,None,1090.4320731163025,1090.7775070667267,1090.4320731163025,1090.7775070667267,1089.4338710308075,None,1089.4338710308075,None,1089.4338710308075,None,-1,-1,1,True,632.1160793304443,986.4537715911865,right,1092.929675102234,None,2,icub,clamp,2021_Dec_21_0944,exp,2021.2.3,59.95280166837954,
left,go,2,0,2,0,6,5,41,0,1093.43239402771,None,1,0.7574548721313477,1093.43239402771,None,1094.285518169403,None,1095.3085889816284,1095.6729731559753,1095.3085889816284,1095.6729731559753,1094.285518169403,None,1094.285518169403,None,1094.285518169403,None,-1,-1,1,True,338.64903450012207,795.0484752655029,left,1097.2954730987549,None,2,icub,clamp,2021_Dec_21_0944,exp,2021.2.3,59.95280166837954,
left,go,2,0,2,0,7,0,42,0,1097.797044992447,None,1,1.3378770351409912,1097.797044992447,None,1099.2673380374908,None,1100.301526069641,1100.6526651382446,1100.301526069641,1100.6526651382446,1099.2673380374908,None,1099.2673380374908,None,1099.2673380374908,None,-1,-1,1,True,405.315637588501,1005.0005912780762,left,1102.577448129654,None,2,icub,clamp,2021_Dec_21_0944,exp,2021.2.3,59.95280166837954,
right,go,2,0,2,0,7,1,43,4,1103.0825040340424,None,1,1.1591498851776123,1103.0825040340424,None,1104.3657310009003,None,1105.3692660331726,1105.7362899780273,1105.3692660331726,1105.7362899780273,1104.3657310009003,None,1104.3657310009003,None,1104.3657310009003,None,-1,-1,1,True,625.4758834838867,703.3641338348389,right,1107.6017470359802,None,2,icub,clamp,2021_Dec_21_0944,exp,2021.2.3,59.95280166837954,
left,stop,2,0,2,0,7,2,44,2,1108.1189291477203,None,1,0.8559341430664062,1108.1189291477203,None,1109.0953860282898,None,1110.1280570030212,1110.4795951843262,1110.1280570030212,1110.4795951843262,1109.0953860282898,None,1109.0953860282898,None,1109.0953860282898,None,650,700,1,True,384.36269760131836,-1.0,-1,1114.3877601623535,None,2,icub,clamp,2021_Dec_21_0944,exp,2021.2.3,59.95280166837954,
left,go,2,0,2,0,7,3,45,1,1114.919095993042,None,1,2.087350845336914,1114.919095993042,None,1117.1397061347961,None,1118.1158940792084,1118.480003118515,1118.1158940792084,1118.480003118515,1117.1397061347961,None,1117.1397061347961,None,1117.1397061347961,None,-1,-1,1,True,333.3292007446289,965.1584625244141,left,1120.3030650615692,None,2,icub,clamp,2021_Dec_21_0944,exp,2021.2.3,59.95280166837954,
left,go,2,0,2,0,7,4,46,0,1120.8335280418396,None,1,1.004727840423584,1120.8335280418396,None,1121.9335281848907,None,1122.9414360523224,1123.2933239936829,1122.9414360523224,1123.2933239936829,1121.9335281848907,None,1121.9335281848907,None,1121.9335281848907,None,-1,-1,1,True,348.32763671875,976.7837524414062,left,1125.1415112018585,None,2,icub,clamp,2021_Dec_21_0944,exp,2021.2.3,59.95280166837954,
right,go,2,0,2,0,7,5,47,4,1125.6782112121582,None,1,0.999763011932373,1125.6782112121582,None,1126.7788619995117,None,1127.7907660007477,1128.1486132144928,1127.7907660007477,1128.1486132144928,1126.7788619995117,None,1126.7788619995117,None,1126.7788619995117,None,-1,-1,1,True,361.4461421966553,896.5408802032471,right,1129.927076101303,None,2,icub,clamp,2021_Dec_21_0944,exp,2021.2.3,59.95280166837954,
left,go,2,0,2,0,8,0,48,1,1130.4618890285492,None,1,1.6957030296325684,1130.4618890285492,None,1132.2431271076202,None,1133.275987148285,1133.6307690143585,1133.275987148285,1133.6307690143585,1132.2431271076202,None,1132.2431271076202,None,1132.2431271076202,None,-1,-1,1,True,362.8866672515869,894.6981430053711,left,1135.3957130908966,None,2,icub,clamp,2021_Dec_21_0944,exp,2021.2.3,59.95280166837954,
right,stop,2,0,2,0,8,1,49,5,1135.9149630069733,None,1,1.0363919734954834,1135.9149630069733,None,1137.0748481750488,None,1138.0725591182709,1138.401955127716,1138.0725591182709,1138.401955127716,1137.0748481750488,None,1137.0748481750488,None,1137.0748481750488,None,700,700,1,True,359.7095012664795,-1.0,-1,1142.321762084961,None,2,icub,clamp,2021_Dec_21_0944,exp,2021.2.3,59.95280166837954,
right,go,2,0,2,0,8,2,50,4,1142.8530061244965,None,1,0.9693100452423096,1142.8530061244965,None,1143.960237979889,None,1144.935963153839,1145.289712190628,1144.935963153839,1145.289712190628,1143.960237979889,None,1143.960237979889,None,1143.960237979889,None,-1,-1,1,True,353.32655906677246,873.8377094268799,right,1147.0597550868988,None,2,icub,clamp,2021_Dec_21_0944,exp,2021.2.3,59.95280166837954,
right,go,2,0,2,0,8,3,51,3,1147.5660150051117,None,1,0.8860228061676025,1147.5660150051117,None,1148.5427050590515,None,1149.5379312038422,1149.8926131725311,1149.5379312038422,1149.8926131725311,1148.5427050590515,None,1148.5427050590515,None,1148.5427050590515,None,-1,-1,1,True,707.6995372772217,599.5686054229736,right,1151.7348880767822,None,2,icub,clamp,2021_Dec_21_0944,exp,2021.2.3,59.95280166837954,
left,go,2,0,2,0,8,4,52,0,1152.2469952106476,None,1,0.8782529830932617,1152.2469952106476,None,1153.2263791561127,None,1154.2558150291443,1154.6143040657043,1154.2558150291443,1154.6143040657043,1153.2263791561127,None,1153.2263791561127,None,1153.2263791561127,None,-1,-1,1,True,370.4497814178467,1132.378101348877,left,1156.6078979969025,None,2,icub,clamp,2021_Dec_21_0944,exp,2021.2.3,59.95280166837954,
left,go,2,0,2,0,8,5,53,1,1157.1383790969849,None,1,1.0972900390625,1157.1383790969849,None,1158.3592331409454,None,1159.3815081119537,1159.7217681407928,1159.3815081119537,1159.7217681407928,1158.3592331409454,None,1158.3592331409454,None,1158.3592331409454,None,-1,-1,1,True,352.7379035949707,993.093729019165,left,1161.592392206192,None,2,icub,clamp,2021_Dec_21_0944,exp,2021.2.3,59.95280166837954,
left,go,2,0,2,0,9,0,54,0,1162.0971810817719,None,1,1.1035618782043457,1162.0971810817719,None,1163.320186138153,None,1164.3493762016296,1164.6905210018158,1164.3493762016296,1164.6905210018158,1163.320186138153,None,1163.320186138153,None,1163.320186138153,None,-1,-1,1,True,410.614013671875,1644.0832614898682,left,1167.2642061710358,None,2,icub,clamp,2021_Dec_21_0944,exp,2021.2.3,59.95280166837954,
right,stop,2,0,2,0,9,1,55,5,1167.7661361694336,None,1,0.9491019248962402,1167.7661361694336,None,1168.8058869838715,None,1169.8229880332947,1170.1828801631927,1169.8229880332947,1170.1828801631927,1168.8058869838715,None,1168.8058869838715,None,1168.8058869838715,None,700,750,0,True,375.3652572631836,861.5756034851074,right,1171.9553890228271,None,2,icub,clamp,2021_Dec_21_0944,exp,2021.2.3,59.95280166837954,
right,go,2,0,2,0,9,2,56,3,1172.4518041610718,None,1,0.8928999900817871,1172.4518041610718,None,1173.429889202118,None,1174.4308631420135,1174.769457101822,1174.4308631420135,1174.769457101822,1173.429889202118,None,1173.429889202118,None,1173.429889202118,None,-1,-1,1,True,730.9880256652832,976.0100841522217,right,1177.0441541671753,None,2,icub,clamp,2021_Dec_21_0944,exp,2021.2.3,59.95280166837954,
left,go,2,0,2,0,9,3,57,0,1177.5558021068573,None,1,0.9487018585205078,1177.5558021068573,None,1178.5848300457,None,1179.5883090496063,1179.9415900707245,1179.5883090496063,1179.9415900707245,1178.5848300457,None,1178.5848300457,None,1178.5848300457,None,-1,-1,1,True,338.4532928466797,1128.957748413086,left,1181.9595181941986,None,2,icub,clamp,2021_Dec_21_0944,exp,2021.2.3,59.95280166837954,
left,go,2,0,2,0,9,4,58,1,1182.4696400165558,None,1,5.367778062820435,1182.4696400165558,None,1187.948037147522,None,1188.962238073349,1189.303719997406,1188.962238073349,1189.303719997406,1187.948037147522,None,1187.948037147522,None,1187.948037147522,None,-1,-1,1,True,33.31160545349121,1022.139310836792,left,1190.8900940418243,None,2,icub,clamp,2021_Dec_21_0944,exp,2021.2.3,59.95280166837954,
left,stop,2,0,2,0,9,5,59,2,1191.4082870483398,None,1,0.9030659198760986,1191.4082870483398,None,1192.444077014923,None,1193.4701330661774,1193.7974150180817,1193.4701330661774,1193.7974150180817,1192.444077014923,None,1192.444077014923,None,1192.444077014923,None,700,700,1,True,317.31343269348145,-1.0,-1,1197.6406960487366,None,2,icub,clamp,2021_Dec_21_0944,exp,2021.2.3,59.95280166837954,
right,go,2,0,2,0,10,0,60,3,1198.173849105835,None,1,0.8265950679779053,1198.173849105835,None,1199.0963690280914,None,1200.081502199173,1200.4387741088867,1200.081502199173,1200.4387741088867,1199.0963690280914,None,1199.0963690280914,None,1199.0963690280914,None,-1,-1,1,True,383.00418853759766,869.6815967559814,right,1202.222050189972,None,2,icub,clamp,2021_Dec_21_0944,exp,2021.2.3,59.95280166837954,
left,stop,2,0,2,0,10,1,61,2,1202.7395341396332,None,1,0.9998269081115723,1202.7395341396332,None,1203.8301720619202,None,1204.8260300159454,1205.1918830871582,1204.8260300159454,1205.1918830871582,1203.8301720619202,None,1203.8301720619202,None,1203.8301720619202,None,750,700,0,True,528.3441543579102,838.0959033966064,left,1207.0880529880524,None,2,icub,clamp,2021_Dec_21_0944,exp,2021.2.3,59.95280166837954,
right,go,2,0,2,0,10,2,62,4,1207.5989060401917,None,1,1.0548229217529297,1207.5989060401917,None,1208.7630829811096,None,1209.7895901203156,1210.150820016861,1209.7895901203156,1210.150820016861,1208.7630829811096,None,1208.7630829811096,None,1208.7630829811096,None,-1,-1,1,True,764.8563385009766,856.4579486846924,right,1212.265506029129,None,2,icub,clamp,2021_Dec_21_0944,exp,2021.2.3,59.95280166837954,
right,go,2,0,2,0,10,3,63,3,1212.7613880634308,None,1,1.1213040351867676,1212.7613880634308,None,1213.9835011959076,None,1214.9880831241608,1215.3243010044098,1214.9880831241608,1215.3243010044098,1213.9835011959076,None,1213.9835011959076,None,1213.9835011959076,None,-1,-1,1,True,526.6909599304199,855.1323413848877,right,1217.2678940296173,None,2,icub,clamp,2021_Dec_21_0944,exp,2021.2.3,59.95280166837954,
right,go,2,0,2,0,10,4,64,3,1217.7687120437622,None,1,0.8637139797210693,1217.7687120437622,None,1218.7484769821167,None,1219.7821910381317,1220.1487820148468,1219.7821910381317,1220.1487820148468,1218.7484769821167,None,1218.7484769821167,None,1218.7484769821167,None,-1,-1,1,True,465.923547744751,1095.7705974578857,right,1222.1869430541992,None,2,icub,clamp,2021_Dec_21_0944,exp,2021.2.3,59.95280166837954,
right,go,2,0,2,0,10,5,65,4,1222.7090849876404,None,1,0.8923258781433105,1222.7090849876404,None,1223.6767461299896,None,1224.6719541549683,1225.0240061283112,1224.6719541549683,1225.0240061283112,1223.6767461299896,None,1223.6767461299896,None,1223.6767461299896,None,-1,-1,1,True,335.8571529388428,1177.3686408996582,right,1227.0600399971008,None,2,icub,clamp,2021_Dec_21_0944,exp,2021.2.3,59.95280166837954,
left,go,2,0,2,0,11,0,66,0,1227.5739932060242,None,1,0.8880159854888916,1227.5739932060242,None,1228.5527350902557,None,1229.5585761070251,1229.9131700992584,1229.5585761070251,1229.9131700992584,1228.5527350902557,None,1228.5527350902557,None,1228.5527350902557,None,-1,-1,1,True,405.8260917663574,1004.6470165252686,left,1231.8523571491241,None,2,icub,clamp,2021_Dec_21_0944,exp,2021.2.3,59.95280166837954,
right,go,2,0,2,0,11,1,67,4,1232.353154182434,None,1,1.14457106590271,1232.353154182434,None,1233.5781240463257,None,1234.6105921268463,1234.973757982254,1234.6105921268463,1234.973757982254,1233.5781240463257,None,1233.5781240463257,None,1233.5781240463257,None,-1,-1,1,True,363.62409591674805,889.3351554870605,right,1236.7082741260529,None,2,icub,clamp,2021_Dec_21_0944,exp,2021.2.3,59.95280166837954,
right,go,2,0,2,0,11,2,68,4,1237.2101221084595,None,1,0.6735680103302002,1237.2101221084595,None,1238.0026421546936,None,1238.9988210201263,1239.3520681858063,1238.9988210201263,1239.3520681858063,1238.0026421546936,None,1238.0026421546936,None,1238.0026421546936,None,-1,-1,1,True,361.07683181762695,843.0240154266357,right,1241.0797560214996,None,2,icub,clamp,2021_Dec_21_0944,exp,2021.2.3,59.95280166837954,
right,stop,2,0,2,0,11,3,69,5,1241.6062910556793,None,1,0.8825900554656982,1241.6062910556793,None,1242.5829901695251,None,1243.608924150467,1243.9476041793823,1243.608924150467,1243.9476041793823,1242.5829901695251,None,1242.5829901695251,None,1242.5829901695251,None,700,700,1,True,400.1615047454834,-1.0,-1,1247.886146068573,None,2,icub,clamp,2021_Dec_21_0944,exp,2021.2.3,59.95280166837954,
left,go,2,0,2,0,11,4,70,1,1248.4184482097626,None,1,2.2067220211029053,1248.4184482097626,None,1250.7638530731201,None,1251.7445471286774,1252.113265991211,1251.7445471286774,1252.113265991211,1250.7638530731201,None,1250.7638530731201,None,1250.7638530731201,None,-1,-1,1,True,382.1678161621094,920.5014705657959,left,1253.9451220035553,None,2,icub,clamp,2021_Dec_21_0944,exp,2021.2.3,59.95280166837954,
left,go,2,0,2,0,11,5,71,0,1254.448084115982,None,1,0.761620044708252,1254.448084115982,None,1255.3001310825348,None,1256.32794713974,1256.687075138092,1256.32794713974,1256.687075138092,1255.3001310825348,None,1255.3001310825348,None,1255.3001310825348,None,-1,-1,1,True,353.0898094177246,887.6373767852783,left,1258.451285123825,None,2,icub,clamp,2021_Dec_21_0944,exp,2021.2.3,59.95280166837954,
left,stop,2,0,2,0,12,0,72,2,1258.9561760425568,None,1,1.0791490077972412,1258.9561760425568,None,1260.120789051056,None,1261.150029182434,1261.4984641075134,1261.150029182434,1261.4984641075134,1260.120789051056,None,1260.120789051056,None,1260.120789051056,None,700,750,0,True,347.9940891265869,718.3663845062256,left,1263.061214208603,None,2,icub,clamp,2021_Dec_21_0944,exp,2021.2.3,59.95280166837954,
left,stop,2,0,2,0,12,1,73,2,1263.5840420722961,None,1,0.8273670673370361,1263.5840420722961,None,1264.497174024582,None,1265.5119400024414,1265.8654141426086,1265.5119400024414,1265.8654141426086,1264.497174024582,None,1264.497174024582,None,1264.497174024582,None,650,750,1,True,362.96606063842773,-1.0,-1,1269.7510759830475,None,2,icub,clamp,2021_Dec_21_0944,exp,2021.2.3,59.95280166837954,
right,stop,2,0,2,0,12,2,74,5,1270.2456471920013,None,1,0.5324709415435791,1270.2456471920013,None,1270.8574941158295,None,1271.8263490200043,1272.1735010147095,1271.8263490200043,1272.1735010147095,1270.8574941158295,None,1270.8574941158295,None,1270.8574941158295,None,700,750,0,True,416.2416458129883,861.5245819091797,right,1274.0204071998596,None,2,icub,clamp,2021_Dec_21_0944,exp,2021.2.3,59.95280166837954,
right,stop,2,0,2,0,12,3,75,5,1274.5161089897156,None,1,0.8992459774017334,1274.5161089897156,None,1275.4959530830383,None,1276.520348072052,1276.874305009842,1276.520348072052,1276.874305009842,1275.4959530830383,None,1275.4959530830383,None,1275.4959530830383,None,700,700,1,True,440.34671783447266,-1.0,-1,1280.815880060196,None,2,icub,clamp,2021_Dec_21_0944,exp,2021.2.3,59.95280166837954,
right,go,2,0,2,0,12,4,76,3,1281.3116850852966,None,1,0.3633689880371094,1281.3116850852966,None,1281.8003361225128,None,1282.7823641300201,1283.139163017273,1282.7823641300201,1283.139163017273,1281.8003361225128,None,1281.8003361225128,None,1281.8003361225128,None,-1,-1,1,True,63.990116119384766,1242.5644397735596,right,1284.9795060157776,None,2,icub,clamp,2021_Dec_21_0944,exp,2021.2.3,59.95280166837954,
left,go,2,0,2,0,12,5,77,0,1285.505338191986,None,1,1.177001953125,1285.505338191986,None,1286.7867510318756,None,1287.8054242134094,1288.1462161540985,1287.8054242134094,1288.1462161540985,1286.7867510318756,None,1286.7867510318756,None,1286.7867510318756,None,-1,-1,1,True,305.44257164001465,954.5085430145264,left,1289.9278490543365,None,2,icub,clamp,2021_Dec_21_0944,exp,2021.2.3,59.95280166837954,
left,stop,3,0,3,0,0,0,0,2,1303.4666740894318,None,1,1.4627928733825684,1303.4666740894318,None,1305.0582971572876,None,1306.0584070682526,1306.4133369922638,1306.0584070682526,1306.4133369922638,1305.0582971572876,None,1305.0582971572876,None,1305.0582971572876,None,700,750,0,True,305.65714836120605,477.8437614440918,left,1307.740688085556,None,2,icub,clamp,2021_Dec_21_0944,exp,2021.2.3,59.95280166837954,
left,go,3,0,3,0,0,1,1,1,1308.2322301864624,None,1,1.1432409286499023,1308.2322301864624,None,1309.4509241580963,None,1310.4435300827026,1310.8028399944305,1310.4435300827026,1310.8028399944305,1309.4509241580963,None,1309.4509241580963,None,1309.4509241580963,None,-1,-1,1,True,450.4714012145996,771.1057662963867,left,1312.5742180347443,None,2,icub,clamp,2021_Dec_21_0944,exp,2021.2.3,59.95280166837954,
left,go,3,0,3,0,0,2,2,1,1313.0901741981506,None,1,1.8869421482086182,1313.0901741981506,None,1315.0631430149078,None,1316.0718140602112,1316.3985691070557,1316.0718140602112,1316.3985691070557,1315.0631430149078,None,1315.0631430149078,None,1315.0631430149078,None,-1,-1,1,True,336.345911026001,892.8365707397461,left,1318.1888570785522,None,2,icub,clamp,2021_Dec_21_0944,exp,2021.2.3,59.95280166837954,
right,stop,3,0,3,0,0,3,3,5,1318.6957921981812,None,1,1.0825459957122803,1318.6957921981812,None,1319.8637762069702,None,1320.8931851387024,1321.2403230667114,1320.8931851387024,1321.2403230667114,1319.8637762069702,None,1319.8637762069702,None,1319.8637762069702,None,650,750,1,True,378.01289558410645,-1.0,-1,1325.1476709842682,None,2,icub,clamp,2021_Dec_21_0944,exp,2021.2.3,59.95280166837954,
right,stop,3,0,3,0,0,4,4,5,1325.6793739795685,None,1,0.5126509666442871,1325.6793739795685,None,1326.2920141220093,None,1327.269466161728,1327.6318101882935,1327.269466161728,1327.6318101882935,1326.2920141220093,None,1326.2920141220093,None,1326.2920141220093,None,650,800,1,True,294.6310043334961,-1.0,-1,1331.4558889865875,None,2,icub,clamp,2021_Dec_21_0944,exp,2021.2.3,59.95280166837954,
right,stop,3,0,3,0,0,5,5,5,1331.987517118454,None,1,0.5125629901885986,1331.987517118454,None,1332.5999829769135,None,1333.5847671031952,1333.9401950836182,1333.5847671031952,1333.9401950836182,1332.5999829769135,None,1332.5999829769135,None,1332.5999829769135,None,650,850,1,True,398.9372253417969,-1.0,-1,1337.8721761703491,None,2,icub,clamp,2021_Dec_21_0944,exp,2021.2.3,59.95280166837954,
right,go,3,0,3,0,1,0,6,4,1338.4045181274414,None,1,0.5034611225128174,1338.4045181274414,None,1339.0166430473328,None,1339.9931740760803,1340.348562002182,1339.9931740760803,1340.348562002182,1339.0166430473328,None,1339.0166430473328,None,1339.0166430473328,None,-1,-1,1,True,336.5917205810547,1293.1771278381348,right,1342.5433812141418,None,2,icub,clamp,2021_Dec_21_0944,exp,2021.2.3,59.95280166837954,
left,stop,3,0,3,0,1,1,7,2,1343.061851978302,None,1,1.3303308486938477,1343.061851978302,None,1344.4729371070862,None,1345.4797930717468,1345.8425571918488,1345.4797930717468,1345.8425571918488,1344.4729371070862,None,1344.4729371070862,None,1344.4729371070862,None,650,900,1,True,347.5499153137207,-1.0,-1,1349.7042260169983,None,2,icub,clamp,2021_Dec_21_0944,exp,2021.2.3,59.95280166837954,
right,stop,3,0,3,0,1,2,8,5,1350.2366330623627,None,1,0.6832239627838135,1350.2366330623627,None,1351.0351831912994,None,1352.0187230110168,1352.3731679916382,1352.0187230110168,1352.3731679916382,1351.0351831912994,None,1351.0351831912994,None,1351.0351831912994,None,700,900,0,True,363.86704444885254,1043.5242652893066,right,1354.3180739879608,None,2,icub,clamp,2021_Dec_21_0944,exp,2021.2.3,59.95280166837954,
right,stop,3,0,3,0,1,3,9,5,1354.8285160064697,None,1,0.7945590019226074,1354.8285160064697,None,1355.7432911396027,None,1356.7563049793243,1357.1198320388794,1356.7563049793243,1357.1198320388794,1355.7432911396027,None,1355.7432911396027,None,1355.7432911396027,None,700,850,1,True,387.3000144958496,-1.0,-1,1361.0390770435333,None,2,icub,clamp,2021_Dec_21_0944,exp,2021.2.3,59.95280166837954,
right,go,3,0,3,0,1,4,10,3,1361.5325601100922,None,1,0.8274908065795898,1361.5325601100922,None,1362.4552981853485,None,1363.4397130012512,1363.789134979248,1363.4397130012512,1363.789134979248,1362.4552981853485,None,1362.4552981853485,None,1362.4552981853485,None,-1,-1,1,True,413.9828681945801,1203.556776046753,right,1365.9645969867706,None,2,icub,clamp,2021_Dec_21_0944,exp,2021.2.3,59.95280166837954,
right,go,3,0,3,0,1,5,11,4,1366.4795022010803,None,1,1.293699026107788,1366.4795022010803,None,1367.8885769844055,None,1368.9148859977722,1369.2779731750488,1368.9148859977722,1369.2779731750488,1367.8885769844055,None,1367.8885769844055,None,1367.8885769844055,None,-1,-1,1,True,333.1713676452637,917.8543090820312,right,1371.0186731815338,None,2,icub,clamp,2021_Dec_21_0944,exp,2021.2.3,59.95280166837954,
right,go,3,0,3,0,2,0,12,3,1371.5372030735016,None,1,1.12391996383667,1371.5372030735016,None,1372.7613830566406,None,1373.7638812065125,1374.12069606781,1373.7638812065125,1374.12069606781,1372.7613830566406,None,1372.7613830566406,None,1372.7613830566406,None,-1,-1,1,True,382.83300399780273,1146.5308666229248,right,1376.195701122284,None,2,icub,clamp,2021_Dec_21_0944,exp,2021.2.3,59.95280166837954,
left,go,3,0,3,0,2,1,13,1,1376.7129981517792,None,1,0.898482084274292,1376.7129981517792,None,1377.6921060085297,None,1378.6833341121674,1379.0412111282349,1378.6833341121674,1379.0412111282349,1377.6921060085297,None,1377.6921060085297,None,1377.6921060085297,None,-1,-1,1,True,346.6334342956543,919.933557510376,left,1380.8417880535126,None,2,icub,clamp,2021_Dec_21_0944,exp,2021.2.3,59.95280166837954,
left,go,3,0,3,0,2,2,14,0,1381.3580980300903,None,1,0.9009151458740234,1381.3580980300903,None,1382.3926320075989,None,1383.3884961605072,1383.7131550312042,1383.3884961605072,1383.7131550312042,1382.3926320075989,None,1382.3926320075989,None,1382.3926320075989,None,-1,-1,1,True,386.69872283935547,1071.702241897583,left,1385.7439210414886,None,2,icub,clamp,2021_Dec_21_0944,exp,2021.2.3,59.95280166837954,
