Holder,Action,blocks.thisRepN,blocks.thisTrialN,blocks.thisN,blocks.thisIndex,trials.thisRepN,trials.thisTrialN,trials.thisN,trials.thisIndex,start_msg.started,start_msg.stopped,RespButton_start_trial.keys,RespButton_start_trial.rt,RespButton_start_trial.started,RespButton_start_trial.stopped,GREEN.started,GREEN.stopped,LEFT_RED.started,LEFT_RED.stopped,RIGHT_RED.started,RIGHT_RED.stopped,LEFT_CIRCLE.started,LEFT_CIRCLE.stopped,CENTER_CIRCLE.started,CENTER_CIRCLE.stopped,RIGHT_CIRCLE.started,RIGHT_CIRCLE.stopped,SOUND_DELAY_MS_LEFT,SOUND_DELAY_MS_RIGHT,CORRECT,VALIDITY,RELEASE_TIME,TOUCH_TIME,BOTTLE_RESPONSE_POSITION,text.started,text.stopped,pid,left_position,right_position,date,expName,psychopyVersion,frameRate,
right,go,0,0,0,0,0,0,0,4,73.69849514961243,None,1,4.094133138656616,73.69849514961243,None,77.87803912162781,None,78.87861108779907,79.22098898887634,78.87861108779907,79.22098898887634,77.87803912162781,None,77.87803912162781,None,77.87803912162781,None,-1,-1,1,True,218.22857856750488,1000.5791187286377,right,80.97722291946411,None,pp_09,icub,clamp,2021_Dec_22_1023,exp,2021.2.3,59.95100211256936,
right,go,0,0,0,0,0,1,1,4,81.4755380153656,None,1,0.6702229976654053,81.4755380153656,None,82.26455593109131,None,83.2863359451294,83.64380502700806,83.2863359451294,83.64380502700806,82.26455593109131,None,82.26455593109131,None,82.26455593109131,None,-1,-1,1,True,448.26531410217285,826.7354965209961,right,85.44958400726318,None,pp_09,icub,clamp,2021_Dec_22_1023,exp,2021.2.3,59.95100211256936,
left,go,0,0,0,0,0,2,2,1,85.95932602882385,None,1,0.6804499626159668,85.95932602882385,None,86.74560213088989,None,87.76269197463989,88.10943508148193,87.76269197463989,88.10943508148193,86.74560213088989,None,86.74560213088989,None,86.74560213088989,None,-1,-1,1,True,462.2671604156494,841.1705493927002,left,89.94331812858582,None,pp_09,icub,clamp,2021_Dec_22_1023,exp,2021.2.3,59.95100211256936,
left,stop,0,0,0,0,0,3,3,2,90.45916104316711,None,1,0.4782397747039795,90.45916104316711,None,91.0612051486969,None,92.07683110237122,92.4341869354248,92.07683110237122,92.4341869354248,91.0612051486969,None,91.0612051486969,None,91.0612051486969,None,500,500,1,True,368.1962490081787,-1.0,-1,96.3345239162445,None,pp_09,icub,clamp,2021_Dec_22_1023,exp,2021.2.3,59.95100211256936,
left,stop,0,0,0,0,0,4,4,2,96.86414194107056,None,1,0.5340499877929688,96.86414194107056,None,97.53725600242615,None,98.51484608650208,98.87236094474792,98.51484608650208,98.87236094474792,97.53725600242615,None,97.53725600242615,None,97.53725600242615,None,550,500,1,True,500.8885860443115,-1.0,-1,102.90415096282959,None,pp_09,icub,clamp,2021_Dec_22_1023,exp,2021.2.3,59.95100211256936,
right,stop,0,0,0,0,0,5,5,5,103.43472504615784,None,1,0.6843860149383545,103.43472504615784,None,104.23485994338989,None,105.24074292182922,105.60391902923584,105.24074292182922,105.60391902923584,104.23485994338989,None,104.23485994338989,None,104.23485994338989,None,600,500,1,True,406.0218334197998,-1.0,-1,109.53135204315186,None,pp_09,icub,clamp,2021_Dec_22_1023,exp,2021.2.3,59.95100211256936,
right,go,0,0,0,0,1,0,6,3,110.06268692016602,None,1,0.5796749591827393,110.06268692016602,None,110.73553395271301,None,111.7113471031189,112.06851291656494,111.7113471031189,112.06851291656494,110.73553395271301,None,110.73553395271301,None,110.73553395271301,None,-1,-1,1,True,628.3814907073975,860.222339630127,right,114.11703515052795,None,pp_09,icub,clamp,2021_Dec_22_1023,exp,2021.2.3,59.95100211256936,
right,stop,0,0,0,0,1,1,7,5,114.63717913627625,None,1,0.5388259887695312,114.63717913627625,None,115.29634094238281,None,116.31551599502563,116.67188692092896,116.31551599502563,116.67188692092896,115.29634094238281,None,115.29634094238281,None,115.29634094238281,None,600,550,1,True,232.04827308654785,-1.0,-1,120.43260097503662,None,pp_09,icub,clamp,2021_Dec_22_1023,exp,2021.2.3,59.95100211256936,
left,go,0,0,0,0,1,2,8,1,120.96328210830688,None,1,0.5838639736175537,120.96328210830688,None,121.6367700099945,None,122.6140489578247,122.96955108642578,122.6140489578247,122.96955108642578,121.6367700099945,None,121.6367700099945,None,121.6367700099945,None,-1,-1,1,True,292.4818992614746,890.6466960906982,left,124.68602108955383,None,pp_09,icub,clamp,2021_Dec_22_1023,exp,2021.2.3,59.95100211256936,
right,stop,0,0,0,0,1,3,9,5,125.19012093544006,None,1,0.663201093673706,125.19012093544006,None,125.97768497467041,None,127.00182509422302,127.34706592559814,127.00182509422302,127.34706592559814,125.97768497467041,None,125.97768497467041,None,125.97768497467041,None,600,600,0,True,295.8049774169922,673.0632781982422,right,128.84097695350647,None,pp_09,icub,clamp,2021_Dec_22_1023,exp,2021.2.3,59.95100211256936,
left,go,0,0,0,0,1,4,10,1,129.33633708953857,None,1,1.2433650493621826,129.33633708953857,None,130.6800639629364,None,131.6996510028839,132.06278800964355,131.6996510028839,132.06278800964355,130.6800639629364,None,130.6800639629364,None,130.6800639629364,None,-1,-1,1,True,301.82719230651855,776.3221263885498,left,133.66741394996643,None,pp_09,icub,clamp,2021_Dec_22_1023,exp,2021.2.3,59.95100211256936,
right,go,0,0,0,0,1,5,11,4,134.16933703422546,None,1,0.45697808265686035,134.16933703422546,None,134.71173810958862,None,135.71144008636475,136.06675505638123,135.71144008636475,136.06675505638123,134.71173810958862,None,134.71173810958862,None,134.71173810958862,None,-1,-1,1,True,237.7002239227295,784.7256660461426,right,137.6203489303589,None,pp_09,icub,clamp,2021_Dec_22_1023,exp,2021.2.3,59.95100211256936,
left,go,0,0,0,0,2,0,12,1,138.11699604988098,None,1,0.439741849899292,138.11699604988098,None,138.64969897270203,None,139.65268898010254,140.00429606437683,139.65268898010254,140.00429606437683,138.64969897270203,None,138.64969897270203,None,138.64969897270203,None,-1,-1,1,True,287.77313232421875,935.0218772888184,left,141.75912308692932,None,pp_09,icub,clamp,2021_Dec_22_1023,exp,2021.2.3,59.95100211256936,
left,go,0,0,0,0,2,1,13,0,142.28132700920105,None,1,0.3594970703125,142.28132700920105,None,142.76072192192078,None,143.7735960483551,144.11581897735596,143.7735960483551,144.11581897735596,142.76072192192078,None,142.76072192192078,None,142.76072192192078,None,-1,-1,1,True,224.30992126464844,692.6846504211426,left,145.589506149292,None,pp_09,icub,clamp,2021_Dec_22_1023,exp,2021.2.3,59.95100211256936,
left,go,0,0,0,0,2,2,14,0,146.11276698112488,None,1,0.5037260055541992,146.11276698112488,None,146.71094393730164,None,147.72824692726135,148.08528900146484,147.72824692726135,148.08528900146484,146.71094393730164,None,146.71094393730164,None,146.71094393730164,None,-1,-1,1,True,177.95324325561523,812.8054141998291,left,149.60486102104187,None,pp_09,icub,clamp,2021_Dec_22_1023,exp,2021.2.3,59.95100211256936,
left,go,0,0,0,0,2,3,15,0,150.11500692367554,None,1,0.4604649543762207,150.11500692367554,None,150.65580892562866,None,151.67476391792297,152.0216600894928,151.67476391792297,152.0216600894928,150.65580892562866,None,150.65580892562866,None,150.65580892562866,None,-1,-1,1,True,305.6180477142334,846.9157218933105,left,153.70266604423523,None,pp_09,icub,clamp,2021_Dec_22_1023,exp,2021.2.3,59.95100211256936,
left,stop,0,0,0,0,2,4,16,2,154.2185299396515,None,1,0.43620896339416504,154.2185299396515,None,154.7609601020813,None,155.79699110984802,156.1200499534607,155.79699110984802,156.1200499534607,154.7609601020813,None,154.7609601020813,None,154.7609601020813,None,600,550,1,True,205.16061782836914,-1.0,-1,159.85459303855896,None,pp_09,icub,clamp,2021_Dec_22_1023,exp,2021.2.3,59.95100211256936,
right,stop,0,0,0,0,2,5,17,5,160.38542199134827,None,1,0.3955960273742676,160.38542199134827,None,160.87315893173218,None,161.85180401802063,162.22153997421265,161.85180401802063,162.22153997421265,160.87315893173218,None,160.87315893173218,None,160.87315893173218,None,650,550,1,True,268.5377597808838,-1.0,-1,166.01680493354797,None,pp_09,icub,clamp,2021_Dec_22_1023,exp,2021.2.3,59.95100211256936,
left,go,0,0,0,0,3,0,18,1,166.54773092269897,None,1,0.2704188823699951,166.54773092269897,None,166.91287112236023,None,167.9041781425476,168.257630109787,167.9041781425476,168.257630109787,166.91287112236023,None,166.91287112236023,None,166.91287112236023,None,-1,-1,1,True,296.1862087249756,762.3205184936523,left,169.83766412734985,None,pp_09,icub,clamp,2021_Dec_22_1023,exp,2021.2.3,59.95100211256936,
left,stop,0,0,0,0,3,1,19,2,170.35668897628784,None,1,0.38887596130371094,170.35668897628784,None,170.83610796928406,None,171.83484506607056,172.1835560798645,171.83484506607056,172.1835560798645,170.83610796928406,None,170.83610796928406,None,170.83610796928406,None,650,600,1,True,297.0743179321289,-1.0,-1,176.0112280845642,None,pp_09,icub,clamp,2021_Dec_22_1023,exp,2021.2.3,59.95100211256936,
right,go,0,0,0,0,3,2,20,3,176.54212403297424,None,1,0.64975905418396,176.54212403297424,None,177.2771999835968,None,178.25916814804077,178.6155140399933,178.25916814804077,178.6155140399933,177.2771999835968,None,177.2771999835968,None,177.2771999835968,None,-1,-1,1,True,435.2724552154541,786.5865230560303,right,180.370845079422,None,pp_09,icub,clamp,2021_Dec_22_1023,exp,2021.2.3,59.95100211256936,
left,go,0,0,0,0,3,3,21,0,180.8833110332489,None,1,0.36710500717163086,180.8833110332489,None,181.36682796478271,None,182.37504601478577,182.72325801849365,182.37504601478577,182.72325801849365,181.36682796478271,None,181.36682796478271,None,181.36682796478271,None,-1,-1,1,True,503.09062004089355,880.7244300842285,left,184.63222908973694,None,pp_09,icub,clamp,2021_Dec_22_1023,exp,2021.2.3,59.95100211256936,
right,go,0,0,0,0,3,4,22,3,185.139662027359,None,1,0.36861515045166016,185.139662027359,None,185.61798810958862,None,186.62860798835754,186.9719889163971,186.62860798835754,186.9719889163971,185.61798810958862,None,185.61798810958862,None,185.61798810958862,None,-1,-1,1,True,431.5471649169922,817.4920082092285,right,188.75258493423462,None,pp_09,icub,clamp,2021_Dec_22_1023,exp,2021.2.3,59.95100211256936,
right,go,0,0,0,0,3,5,23,4,189.25472211837769,None,1,0.39382290840148926,189.25472211837769,None,189.73417592048645,None,190.7450189590454,191.10066294670105,190.7450189590454,191.10066294670105,189.73417592048645,None,189.73417592048645,None,189.73417592048645,None,-1,-1,1,True,278.94067764282227,799.8044490814209,right,192.71074104309082,None,pp_09,icub,clamp,2021_Dec_22_1023,exp,2021.2.3,59.95100211256936,
right,stop,0,0,0,0,4,0,24,5,193.21067595481873,None,1,0.418471097946167,193.21067595481873,None,193.75222897529602,None,194.7693109512329,195.12648606300354,194.7693109512329,195.12648606300354,193.75222897529602,None,193.75222897529602,None,193.75222897529602,None,700,600,0,True,287.3349189758301,767.2398090362549,right,196.70882511138916,None,pp_09,icub,clamp,2021_Dec_22_1023,exp,2021.2.3,59.95100211256936,
left,go,0,0,0,0,4,1,25,0,197.2116379737854,None,1,1.013936996459961,197.2116379737854,None,198.3107991218567,None,199.31422805786133,199.66025710105896,199.31422805786133,199.66025710105896,198.3107991218567,None,198.3107991218567,None,198.3107991218567,None,-1,-1,1,True,101.67145729064941,824.2008686065674,left,201.1217679977417,None,pp_09,icub,clamp,2021_Dec_22_1023,exp,2021.2.3,59.95100211256936,
left,stop,0,0,0,0,4,2,26,2,201.65232300758362,None,1,0.3531019687652588,201.65232300758362,None,202.12910795211792,None,203.12344813346863,203.47490096092224,203.12344813346863,203.47490096092224,202.12910795211792,None,202.12910795211792,None,202.12910795211792,None,700,550,1,True,202.09622383117676,-1.0,-1,207.2032060623169,None,pp_09,icub,clamp,2021_Dec_22_1023,exp,2021.2.3,59.95100211256936,
left,stop,0,0,0,0,4,3,27,2,207.73260402679443,None,1,0.49612903594970703,207.73260402679443,None,208.34456706047058,None,209.32646012306213,209.68414998054504,209.32646012306213,209.68414998054504,208.34456706047058,None,208.34456706047058,None,208.34456706047058,None,750,550,0,True,251.17731094360352,908.9903831481934,left,211.40519499778748,None,pp_09,icub,clamp,2021_Dec_22_1023,exp,2021.2.3,59.95100211256936,
left,go,0,0,0,0,4,4,28,1,211.90922713279724,None,1,1.119016170501709,211.90922713279724,None,213.12933611869812,None,214.12538504600525,214.47724199295044,214.12538504600525,214.47724199295044,213.12933611869812,None,213.12933611869812,None,213.12933611869812,None,-1,-1,1,True,43.496131896972656,1089.9174213409424,left,216.17269110679626,None,pp_09,icub,clamp,2021_Dec_22_1023,exp,2021.2.3,59.95100211256936,
right,go,0,0,0,0,4,5,29,4,216.69178915023804,None,1,0.4805910587310791,216.69178915023804,None,217.29515600204468,None,218.29189014434814,218.64679408073425,218.29189014434814,218.64679408073425,217.29515600204468,None,217.29515600204468,None,217.29515600204468,None,-1,-1,1,True,285.08782386779785,956.3350677490234,right,220.41087913513184,None,pp_09,icub,clamp,2021_Dec_22_1023,exp,2021.2.3,59.95100211256936,
right,go,0,0,0,0,5,0,30,3,220.92023301124573,None,1,0.3608589172363281,220.92023301124573,None,221.3991301059723,None,222.42149806022644,222.76079511642456,222.42149806022644,222.76079511642456,221.3991301059723,None,221.3991301059723,None,221.3991301059723,None,-1,-1,1,True,327.3205757141113,1053.9309978485107,right,224.66071105003357,None,pp_09,icub,clamp,2021_Dec_22_1023,exp,2021.2.3,59.95100211256936,
right,stop,0,0,0,0,5,1,31,5,225.16902899742126,None,1,0.38440513610839844,225.16902899742126,None,225.65419602394104,None,226.67071914672852,227.02438497543335,226.67071914672852,227.02438497543335,225.65419602394104,None,225.65419602394104,None,225.65419602394104,None,700,550,1,True,320.7886219024658,-1.0,-1,230.85987401008606,None,pp_09,icub,clamp,2021_Dec_22_1023,exp,2021.2.3,59.95100211256936,
right,go,0,0,0,0,5,2,32,4,231.3912160396576,None,1,0.5034961700439453,231.3912160396576,None,232.00404810905457,None,233.006196975708,233.36619114875793,233.006196975708,233.36619114875793,232.00404810905457,None,232.00404810905457,None,232.00404810905457,None,-1,-1,1,True,95.08728981018066,962.1009826660156,right,234.94248914718628,None,pp_09,icub,clamp,2021_Dec_22_1023,exp,2021.2.3,59.95100211256936,
left,go,0,0,0,0,5,3,33,0,235.46043515205383,None,1,0.34683704376220703,235.46043515205383,None,235.94083094596863,None,236.9671459197998,237.32113003730774,236.9671459197998,237.32113003730774,235.94083094596863,None,235.94083094596863,None,235.94083094596863,None,-1,-1,1,True,211.5163803100586,884.4282627105713,left,238.94766402244568,None,pp_09,icub,clamp,2021_Dec_22_1023,exp,2021.2.3,59.95100211256936,
right,go,0,0,0,0,5,4,34,4,239.4498450756073,None,1,0.46932506561279297,239.4498450756073,None,240.03983092308044,None,241.07031798362732,241.40154194831848,241.07031798362732,241.40154194831848,240.03983092308044,None,240.03983092308044,None,240.03983092308044,None,-1,-1,1,True,266.86739921569824,781.9204330444336,right,242.98149609565735,None,pp_09,icub,clamp,2021_Dec_22_1023,exp,2021.2.3,59.95100211256936,
right,go,0,0,0,0,5,5,35,3,243.5184850692749,None,1,0.5946640968322754,243.5184850692749,None,244.18361496925354,None,245.2015631198883,245.53320908546448,245.2015631198883,245.53320908546448,244.18361496925354,None,244.18361496925354,None,244.18361496925354,None,-1,-1,1,True,262.4175548553467,877.3963451385498,right,247.2018530368805,None,pp_09,icub,clamp,2021_Dec_22_1023,exp,2021.2.3,59.95100211256936,
right,go,0,0,0,0,6,0,36,3,247.70159006118774,None,1,0.5291659832000732,247.70159006118774,None,248.35906410217285,None,249.360857963562,249.71305513381958,249.360857963562,249.71305513381958,248.35906410217285,None,248.35906410217285,None,248.35906410217285,None,-1,-1,1,True,311.8162155151367,777.153730392456,right,251.32299709320068,None,pp_09,icub,clamp,2021_Dec_22_1023,exp,2021.2.3,59.95100211256936,
right,go,0,0,0,0,6,1,37,4,251.83930897712708,None,1,0.5326390266418457,251.83930897712708,None,252.49943709373474,None,253.4930169582367,253.8511209487915,253.4930169582367,253.8511209487915,252.49943709373474,None,252.49943709373474,None,252.49943709373474,None,-1,-1,1,True,176.03683471679688,758.190393447876,right,255.31056714057922,None,pp_09,icub,clamp,2021_Dec_22_1023,exp,2021.2.3,59.95100211256936,
left,stop,0,0,0,0,6,2,38,2,255.8271131515503,None,1,0.6278719902038574,255.8271131515503,None,256.55554604530334,None,257.5794939994812,257.93666100502014,257.5794939994812,257.93666100502014,256.55554604530334,None,256.55554604530334,None,256.55554604530334,None,700,600,0,True,205.9636116027832,845.3407287597656,left,259.4834020137787,None,pp_09,icub,clamp,2021_Dec_22_1023,exp,2021.2.3,59.95100211256936,
right,go,0,0,0,0,6,3,39,4,259.99917101860046,None,1,2.2149009704589844,259.99917101860046,None,262.33259892463684,None,263.36171793937683,263.7239680290222,263.36171793937683,263.7239680290222,262.33259892463684,None,262.33259892463684,None,262.33259892463684,None,,,0,False,-1.0,-1.0,-1,264.1055099964142,None,pp_09,icub,clamp,2021_Dec_22_1023,exp,2021.2.3,59.95100211256936,
right,go,0,0,0,0,6,4,40,3,264.6356439590454,None,1,1.0229170322418213,264.6356439590454,None,265.7421119213104,None,266.7499351501465,267.10642313957214,266.7499351501465,267.10642313957214,265.7421119213104,None,265.7421119213104,None,265.7421119213104,None,-1,-1,1,True,317.2924518585205,798.2015609741211,right,268.74567699432373,None,pp_09,icub,clamp,2021_Dec_22_1023,exp,2021.2.3,59.95100211256936,
right,go,0,0,0,0,6,5,41,3,269.2583119869232,None,1,0.749549150466919,269.2583119869232,None,270.1093330383301,None,271.1178529262543,271.4806480407715,271.1178529262543,271.4806480407715,270.1093330383301,None,270.1093330383301,None,270.1093330383301,None,-1,-1,1,True,587.1679782867432,728.8861274719238,right,273.32213306427,None,pp_09,icub,clamp,2021_Dec_22_1023,exp,2021.2.3,59.95100211256936,
left,go,0,0,0,0,7,0,42,1,273.83448910713196,None,1,0.5465750694274902,273.83448910713196,None,274.50004410743713,None,275.5307071208954,275.88780212402344,275.5307071208954,275.88780212402344,274.50004410743713,None,274.50004410743713,None,274.50004410743713,None,-1,-1,1,True,480.806827545166,848.40989112854,left,277.70581007003784,None,pp_09,icub,clamp,2021_Dec_22_1023,exp,2021.2.3,59.95100211256936,
right,stop,0,0,0,0,7,1,43,5,278.2214090824127,None,1,0.7766580581665039,278.2214090824127,None,279.07363200187683,None,280.094318151474,280.4572911262512,280.094318151474,280.4572911262512,279.07363200187683,None,279.07363200187683,None,279.07363200187683,None,650,600,0,True,618.3676719665527,697.2384452819824,right,282.287780046463,None,pp_09,icub,clamp,2021_Dec_22_1023,exp,2021.2.3,59.95100211256936,
left,go,0,0,0,0,7,2,44,0,282.80834698677063,None,1,0.8084988594055176,282.80834698677063,None,283.7231910228729,None,284.74649000167847,285.1090009212494,284.74649000167847,285.1090009212494,283.7231910228729,None,283.7231910228729,None,283.7231910228729,None,-1,-1,1,True,529.8638343811035,695.9850788116455,left,286.856791973114,None,pp_09,icub,clamp,2021_Dec_22_1023,exp,2021.2.3,59.95100211256936,
right,go,0,0,0,0,7,3,45,3,287.38457703590393,None,1,0.5885841846466064,287.38457703590393,None,288.1060609817505,None,289.0988259315491,289.44409012794495,289.0988259315491,289.44409012794495,288.1060609817505,None,288.1060609817505,None,288.1060609817505,None,-1,-1,1,True,285.0685119628906,759.6547603607178,right,291.06017208099365,None,pp_09,icub,clamp,2021_Dec_22_1023,exp,2021.2.3,59.95100211256936,
right,stop,0,0,0,0,7,4,46,5,291.57517099380493,None,1,0.48879384994506836,291.57517099380493,None,292.1786301136017,None,293.1965489387512,293.5639491081238,293.1965489387512,293.5639491081238,292.1786301136017,None,292.1786301136017,None,292.1786301136017,None,650,550,1,True,293.45035552978516,-1.0,-1,297.347295999527,None,pp_09,icub,clamp,2021_Dec_22_1023,exp,2021.2.3,59.95100211256936,
right,go,0,0,0,0,7,5,47,3,297.87928104400635,None,1,0.4811418056488037,297.87928104400635,None,298.4908940792084,None,299.4676020145416,299.830050945282,299.4676020145416,299.830050945282,298.4908940792084,None,298.4908940792084,None,298.4908940792084,None,-1,-1,1,True,293.73931884765625,743.1821823120117,right,301.3890390396118,None,pp_09,icub,clamp,2021_Dec_22_1023,exp,2021.2.3,59.95100211256936,
left,stop,0,0,0,0,8,0,48,2,301.9019899368286,None,1,0.4048798084259033,301.9019899368286,None,302.4398031234741,None,303.4491069316864,303.8014531135559,303.4491069316864,303.8014531135559,302.4398031234741,None,302.4398031234741,None,302.4398031234741,None,650,600,1,True,311.9959831237793,-1.0,-1,307.64156103134155,None,pp_09,icub,clamp,2021_Dec_22_1023,exp,2021.2.3,59.95100211256936,
left,go,0,0,0,0,8,1,49,0,308.17229294776917,None,1,0.6310820579528809,308.17229294776917,None,308.90753507614136,None,309.88257098197937,310.2296631336212,309.88257098197937,310.2296631336212,308.90753507614136,None,308.90753507614136,None,308.90753507614136,None,-1,-1,1,True,334.2728614807129,839.571475982666,left,311.97519397735596,None,pp_09,icub,clamp,2021_Dec_22_1023,exp,2021.2.3,59.95100211256936,
left,go,0,0,0,0,8,2,50,0,312.47503995895386,None,1,0.4587588310241699,312.47503995895386,None,313.0141589641571,None,314.02957797050476,314.39007210731506,314.02957797050476,314.39007210731506,313.0141589641571,None,313.0141589641571,None,313.0141589641571,None,-1,-1,1,True,406.8865776062012,877.9292106628418,left,316.1955740451813,None,pp_09,icub,clamp,2021_Dec_22_1023,exp,2021.2.3,59.95100211256936,
right,go,0,0,0,0,8,3,51,3,316.7023141384125,None,1,0.6073930263519287,316.7023141384125,None,317.42746591567993,None,318.4597079753876,318.82124400138855,318.4597079753876,318.82124400138855,317.42746591567993,None,317.42746591567993,None,317.42746591567993,None,-1,-1,1,True,413.7544631958008,816.544771194458,right,320.53208804130554,None,pp_09,icub,clamp,2021_Dec_22_1023,exp,2021.2.3,59.95100211256936,
right,stop,0,0,0,0,8,4,52,5,321.03682708740234,None,1,0.47273802757263184,321.03682708740234,None,321.6377079486847,None,322.6590881347656,323.02111411094666,322.6590881347656,323.02111411094666,321.6377079486847,None,321.6377079486847,None,321.6377079486847,None,700,600,1,True,511.3062858581543,-1.0,-1,327.02475094795227,None,pp_09,icub,clamp,2021_Dec_22_1023,exp,2021.2.3,59.95100211256936,
left,stop,0,0,0,0,8,5,53,2,327.55557799339294,None,1,0.6388459205627441,327.55557799339294,None,328.2921600341797,None,329.2946050167084,329.61681604385376,329.2946050167084,329.61681604385376,328.2921600341797,None,328.2921600341797,None,328.2921600341797,None,700,650,0,True,858.9303493499756,659.6114635467529,left,331.68837094306946,None,pp_09,icub,clamp,2021_Dec_22_1023,exp,2021.2.3,59.95100211256936,
left,go,0,0,0,0,9,0,54,0,332.19711995124817,None,1,0.9995248317718506,332.19711995124817,None,333.2967691421509,None,334.32367992401123,334.6662549972534,334.32367992401123,334.6662549972534,333.2967691421509,None,333.2967691421509,None,333.2967691421509,None,-1,-1,1,True,574.702262878418,720.8621501922607,left,336.4921979904175,None,pp_09,icub,clamp,2021_Dec_22_1023,exp,2021.2.3,59.95100211256936,
right,go,0,0,0,0,9,1,55,4,336.9952790737152,None,1,0.322645902633667,336.9952790737152,None,337.4089050292969,None,338.4207890033722,338.77516508102417,338.4207890033722,338.77516508102417,337.4089050292969,None,337.4089050292969,None,337.4089050292969,None,-1,-1,1,True,343.7638282775879,881.7331790924072,right,340.5324909687042,None,pp_09,icub,clamp,2021_Dec_22_1023,exp,2021.2.3,59.95100211256936,
right,go,0,0,0,0,9,2,56,3,341.0385971069336,None,1,0.38843202590942383,341.0385971069336,None,341.51775002479553,None,342.5197479724884,342.88279008865356,342.5197479724884,342.88279008865356,341.51775002479553,None,341.51775002479553,None,341.51775002479553,None,-1,-1,1,True,425.5051612854004,735.2092266082764,right,344.5603849887848,None,pp_09,icub,clamp,2021_Dec_22_1023,exp,2021.2.3,59.95100211256936,
left,stop,0,0,0,0,9,3,57,2,345.09090304374695,None,1,0.3556849956512451,345.09090304374695,None,345.56922912597656,None,346.5681710243225,346.9279589653015,346.5681710243225,346.9279589653015,345.56922912597656,None,345.56922912597656,None,345.56922912597656,None,650,650,0,True,474.28202629089355,788.771390914917,left,348.72699213027954,None,pp_09,icub,clamp,2021_Dec_22_1023,exp,2021.2.3,59.95100211256936,
left,go,0,0,0,0,9,4,58,1,349.2310800552368,None,1,1.1478550434112549,349.2310800552368,None,350.511018037796,None,351.52833795547485,351.87812209129333,351.52833795547485,351.87812209129333,350.511018037796,None,350.511018037796,None,350.511018037796,None,-1,-1,1,True,297.8489398956299,645.958423614502,left,353.3494019508362,None,pp_09,icub,clamp,2021_Dec_22_1023,exp,2021.2.3,59.95100211256936,
left,go,0,0,0,0,9,5,59,1,353.8439040184021,None,1,0.4478490352630615,353.8439040184021,None,354.38490200042725,None,355.40257596969604,355.7616720199585,355.40257596969604,355.7616720199585,354.38490200042725,None,354.38490200042725,None,354.38490200042725,None,-1,-1,1,True,277.50682830810547,892.0063972473145,left,357.4484341144562,None,pp_09,icub,clamp,2021_Dec_22_1023,exp,2021.2.3,59.95100211256936,
left,stop,0,0,0,0,10,0,60,2,357.9585280418396,None,1,0.4739699363708496,357.9585280418396,None,358.5612931251526,None,359.5843050479889,359.9402480125427,359.5843050479889,359.9402480125427,358.5612931251526,None,358.5612931251526,None,358.5612931251526,None,600,650,1,True,303.4853935241699,-1.0,-1,363.7572350502014,None,pp_09,icub,clamp,2021_Dec_22_1023,exp,2021.2.3,59.95100211256936,
right,stop,0,0,0,0,10,1,61,5,364.28894805908203,None,1,0.6422460079193115,364.28894805908203,None,365.0241811275482,None,366.0325081348419,366.3814640045166,366.0325081348419,366.3814640045166,365.0241811275482,None,365.0241811275482,None,365.0241811275482,None,650,650,1,True,321.1052417755127,-1.0,-1,370.22688698768616,None,pp_09,icub,clamp,2021_Dec_22_1023,exp,2021.2.3,59.95100211256936,
left,go,0,0,0,0,10,2,62,1,370.75812697410583,None,1,0.3579671382904053,370.75812697410583,None,371.2468020915985,None,372.24009799957275,372.5868480205536,372.24009799957275,372.5868480205536,371.2468020915985,None,371.2468020915985,None,371.2468020915985,None,-1,-1,1,True,562.7775192260742,746.1445331573486,left,374.4525320529938,None,pp_09,icub,clamp,2021_Dec_22_1023,exp,2021.2.3,59.95100211256936,
right,go,0,0,0,0,10,3,63,4,374.9613299369812,None,1,0.338486909866333,374.9613299369812,None,375.38018012046814,None,376.4007580280304,376.7601249217987,376.4007580280304,376.7601249217987,375.38018012046814,None,375.38018012046814,None,375.38018012046814,None,-1,-1,1,True,632.4052810668945,697.4432468414307,right,378.5789189338684,None,pp_09,icub,clamp,2021_Dec_22_1023,exp,2021.2.3,59.95100211256936,
right,stop,0,0,0,0,10,4,64,5,379.08870911598206,None,1,0.5921061038970947,379.08870911598206,None,379.80934500694275,None,380.82949113845825,381.189101934433,380.82949113845825,381.189101934433,379.80934500694275,None,379.80934500694275,None,379.80934500694275,None,650,700,1,True,327.6865482330322,-1.0,-1,385.0357370376587,None,pp_09,icub,clamp,2021_Dec_22_1023,exp,2021.2.3,59.95100211256936,
left,go,0,0,0,0,10,5,65,0,385.5676760673523,None,1,0.38947510719299316,385.5676760673523,None,386.05525612831116,None,387.0609109401703,387.41475009918213,387.0609109401703,387.41475009918213,386.05525612831116,None,386.05525612831116,None,386.05525612831116,None,-1,-1,1,True,321.46763801574707,660.3374481201172,left,388.9198520183563,None,pp_09,icub,clamp,2021_Dec_22_1023,exp,2021.2.3,59.95100211256936,
left,go,0,0,0,0,11,0,66,1,389.43582797050476,None,1,0.3868408203125,389.43582797050476,None,389.91472697257996,None,390.9301960468292,391.28712606430054,390.9301960468292,391.28712606430054,389.91472697257996,None,389.91472697257996,None,389.91472697257996,None,-1,-1,1,True,269.0742015838623,779.4594764709473,left,392.86565113067627,None,pp_09,icub,clamp,2021_Dec_22_1023,exp,2021.2.3,59.95100211256936,
right,go,0,0,0,0,11,1,67,4,393.3966209888458,None,1,0.26681995391845703,393.3966209888458,None,393.75443410873413,None,394.74537801742554,395.11026406288147,394.74537801742554,395.11026406288147,393.75443410873413,None,393.75443410873413,None,393.75443410873413,None,-1,-1,1,True,355.12471199035645,772.5415229797363,right,396.76623702049255,None,pp_09,icub,clamp,2021_Dec_22_1023,exp,2021.2.3,59.95100211256936,
right,stop,0,0,0,0,11,2,68,5,397.2982919216156,None,1,0.32870006561279297,397.2982919216156,None,397.7177231311798,None,398.7236239910126,399.07547092437744,398.7236239910126,399.07547092437744,397.7177231311798,None,397.7177231311798,None,397.7177231311798,None,650,750,0,True,285.21180152893066,763.6480331420898,right,400.6586790084839,None,pp_09,icub,clamp,2021_Dec_22_1023,exp,2021.2.3,59.95100211256936,
left,stop,0,0,0,0,11,3,69,2,401.17449402809143,None,1,1.3378708362579346,401.17449402809143,None,402.63656210899353,None,403.6368079185486,403.99166893959045,403.6368079185486,403.99166893959045,402.63656210899353,None,402.63656210899353,None,402.63656210899353,None,650,700,0,True,328.5081386566162,744.5597648620605,left,405.61491107940674,None,pp_09,icub,clamp,2021_Dec_22_1023,exp,2021.2.3,59.95100211256936,
left,go,0,0,0,0,11,4,70,1,406.13516902923584,None,1,0.6764471530914307,406.13516902923584,None,406.92762994766235,None,407.96314001083374,408.32663798332214,407.96314001083374,408.32663798332214,406.92762994766235,None,406.92762994766235,None,406.92762994766235,None,-1,-1,1,True,297.3003387451172,792.2792434692383,left,409.9096329212189,None,pp_09,icub,clamp,2021_Dec_22_1023,exp,2021.2.3,59.95100211256936,
left,go,0,0,0,0,11,5,71,0,410.4396290779114,None,1,0.557715892791748,410.4396290779114,None,411.1076109409332,None,412.12672209739685,412.47944498062134,412.12672209739685,412.47944498062134,411.1076109409332,None,411.1076109409332,None,411.1076109409332,None,-1,-1,1,True,261.93809509277344,846.9588756561279,left,414.1200909614563,None,pp_09,icub,clamp,2021_Dec_22_1023,exp,2021.2.3,59.95100211256936,
left,go,0,0,0,0,12,0,72,0,414.6201250553131,None,1,0.43134498596191406,414.6201250553131,None,415.160444021225,None,416.15592408180237,416.50661301612854,416.15592408180237,416.50661301612854,415.160444021225,None,415.160444021225,None,415.160444021225,None,-1,-1,1,True,437.0081424713135,771.1999416351318,left,418.24145793914795,None,pp_09,icub,clamp,2021_Dec_22_1023,exp,2021.2.3,59.95100211256936,
left,go,0,0,0,0,12,1,73,1,418.7775249481201,None,1,0.5102009773254395,418.7775249481201,None,419.37996101379395,None,420.4094750881195,420.7513689994812,420.4094750881195,420.7513689994812,419.37996101379395,None,419.37996101379395,None,419.37996101379395,None,-1,-1,1,True,479.1243076324463,850.8365154266357,left,422.59448194503784,None,pp_09,icub,clamp,2021_Dec_22_1023,exp,2021.2.3,59.95100211256936,
left,stop,0,0,0,0,12,2,74,2,423.11470198631287,None,1,0.37776613235473633,423.11470198631287,None,423.5985629558563,None,424.6175501346588,424.9681670665741,424.6175501346588,424.9681670665741,423.5985629558563,None,423.5985629558563,None,423.5985629558563,None,600,700,1,True,466.677188873291,-1.0,-1,428.9646580219269,None,pp_09,icub,clamp,2021_Dec_22_1023,exp,2021.2.3,59.95100211256936,
right,go,0,0,0,0,12,3,75,4,429.49705600738525,None,1,0.4608418941497803,429.49705600738525,None,430.04834604263306,None,431.0254020690918,431.3755741119385,431.0254020690918,431.3755741119385,430.04834604263306,None,430.04834604263306,None,430.04834604263306,None,-1,-1,1,True,418.0290699005127,853.3813953399658,right,433.21011900901794,None,pp_09,icub,clamp,2021_Dec_22_1023,exp,2021.2.3,59.95100211256936,
right,go,0,0,0,0,12,4,76,3,433.7103850841522,None,1,0.36685800552368164,433.7103850841522,None,434.1920371055603,None,435.1859941482544,435.54408597946167,435.1859941482544,435.54408597946167,434.1920371055603,None,434.1920371055603,None,434.1920371055603,None,-1,-1,1,True,299.38268661499023,808.0580234527588,right,437.1738500595093,None,pp_09,icub,clamp,2021_Dec_22_1023,exp,2021.2.3,59.95100211256936,
right,stop,0,0,0,0,12,5,77,5,437.6867151260376,None,1,0.5272679328918457,437.6867151260376,None,438.2946140766144,None,439.28962206840515,439.61586713790894,439.28962206840515,439.61586713790894,438.2946140766144,None,438.2946140766144,None,438.2946140766144,None,650,700,1,True,384.34791564941406,-1.0,-1,443.5715539455414,None,pp_09,icub,clamp,2021_Dec_22_1023,exp,2021.2.3,59.95100211256936,
right,go,1,0,1,0,0,0,0,3,455.209144115448,None,1,18.718873023986816,455.209144115448,None,474.0289509296417,None,None,None,None,None,474.0289509296417,None,474.0289509296417,None,474.0289509296417,None,,,0,False,-1.0,-1.0,-1,474.2310061454773,None,pp_09,icub,clamp,2021_Dec_22_1023,exp,2021.2.3,59.95100211256936,
left,stop,1,0,1,0,0,1,1,2,474.7452030181885,None,1,1.4134538173675537,474.7452030181885,None,476.27217411994934,None,477.25054597854614,477.5962669849396,477.25054597854614,477.5962669849396,476.27217411994934,None,476.27217411994934,None,476.27217411994934,None,650,750,0,True,389.29224014282227,775.2838134765625,left,479.332181930542,None,pp_09,icub,clamp,2021_Dec_22_1023,exp,2021.2.3,59.95100211256936,
right,stop,1,0,1,0,0,2,2,5,479.8629641532898,None,1,1.5230200290679932,479.8629641532898,None,481.5137679576874,None,482.5267140865326,482.87469601631165,482.5267140865326,482.87469601631165,481.5137679576874,None,481.5137679576874,None,481.5137679576874,None,600,750,0,True,383.27836990356445,801.3341426849365,right,484.5790889263153,None,pp_09,icub,clamp,2021_Dec_22_1023,exp,2021.2.3,59.95100211256936,
right,go,1,0,1,0,0,3,3,3,485.09534096717834,None,1,0.8889009952545166,485.09534096717834,None,486.0596101284027,None,487.04978013038635,487.3941581249237,487.04978013038635,487.3941581249237,486.0596101284027,None,486.0596101284027,None,486.0596101284027,None,-1,-1,1,True,515.3396129608154,881.101131439209,right,489.36403608322144,None,pp_09,icub,clamp,2021_Dec_22_1023,exp,2021.2.3,59.95100211256936,
left,go,1,0,1,0,0,4,4,0,489.88379192352295,None,1,0.43932294845581055,489.88379192352295,None,490.42983508110046,None,491.42571091651917,491.7935400009155,491.42571091651917,491.7935400009155,490.42983508110046,None,490.42983508110046,None,490.42983508110046,None,-1,-1,1,True,332.87668228149414,896.4216709136963,left,493.55483198165894,None,pp_09,icub,clamp,2021_Dec_22_1023,exp,2021.2.3,59.95100211256936,
left,stop,1,0,1,0,0,5,5,2,494.065043926239,None,1,0.3771798610687256,494.065043926239,None,494.548702955246,None,495.5813419818878,495.93203592300415,495.5813419818878,495.93203592300415,494.548702955246,None,494.548702955246,None,494.548702955246,None,600,700,1,True,306.2610626220703,-1.0,-1,499.75664496421814,None,pp_09,icub,clamp,2021_Dec_22_1023,exp,2021.2.3,59.95100211256936,
right,go,1,0,1,0,1,0,6,4,500.28203105926514,None,1,0.05428290367126465,500.28203105926514,None,500.4543309211731,None,501.4336121082306,501.7815320491791,501.4336121082306,501.7815320491791,500.4543309211731,None,500.4543309211731,None,500.4543309211731,None,-1,-1,1,True,421.0331439971924,787.4200344085693,right,503.56394600868225,None,pp_09,icub,clamp,2021_Dec_22_1023,exp,2021.2.3,59.95100211256936,
left,stop,1,0,1,0,1,1,7,2,504.0979700088501,None,1,0.41733598709106445,504.0979700088501,None,504.6385519504547,None,505.66675305366516,506.0110459327698,505.66675305366516,506.0110459327698,504.6385519504547,None,504.6385519504547,None,504.6385519504547,None,650,700,1,True,366.5192127227783,-1.0,-1,509.90336298942566,None,pp_09,icub,clamp,2021_Dec_22_1023,exp,2021.2.3,59.95100211256936,
right,stop,1,0,1,0,1,2,8,5,510.4342830181122,None,1,0.5812368392944336,510.4342830181122,None,511.10729598999023,None,512.117269039154,512.4773979187012,512.117269039154,512.4773979187012,511.10729598999023,None,511.10729598999023,None,511.10729598999023,None,700,700,0,True,224.4570255279541,807.9867362976074,right,514.0433249473572,None,pp_09,icub,clamp,2021_Dec_22_1023,exp,2021.2.3,59.95100211256936,
right,go,1,0,1,0,1,3,9,4,514.5498199462891,None,1,1.05946683883667,514.5498199462891,None,515.7095971107483,None,516.7157399654388,517.0552411079407,516.7157399654388,517.0552411079407,515.7095971107483,None,515.7095971107483,None,515.7095971107483,None,-1,-1,1,True,293.3163642883301,966.6743278503418,right,518.8465840816498,None,pp_09,icub,clamp,2021_Dec_22_1023,exp,2021.2.3,59.95100211256936,
right,go,1,0,1,0,1,4,10,4,519.3632531166077,None,1,0.5625250339508057,519.3632531166077,None,520.0324599742889,None,521.0703370571136,521.4317889213562,521.0703370571136,521.4317889213562,520.0324599742889,None,520.0324599742889,None,520.0324599742889,None,-1,-1,1,True,392.9264545440674,811.5661144256592,right,523.125669002533,None,pp_09,icub,clamp,2021_Dec_22_1023,exp,2021.2.3,59.95100211256936,
left,go,1,0,1,0,1,5,11,0,523.6272959709167,None,1,0.5459260940551758,523.6272959709167,None,524.290666103363,None,525.2919261455536,525.6484670639038,525.2919261455536,525.6484670639038,524.290666103363,None,524.290666103363,None,524.290666103363,None,-1,-1,1,True,340.5802249908447,932.2097301483154,left,527.451945066452,None,pp_09,icub,clamp,2021_Dec_22_1023,exp,2021.2.3,59.95100211256936,
left,stop,1,0,1,0,2,0,12,2,527.9630861282349,None,1,0.33675503730773926,527.9630861282349,None,528.3854389190674,None,529.4010329246521,529.7609269618988,529.4010329246521,529.7609269618988,528.3854389190674,None,528.3854389190674,None,528.3854389190674,None,700,650,1,True,407.1178436279297,-1.0,-1,533.6984930038452,None,pp_09,icub,clamp,2021_Dec_22_1023,exp,2021.2.3,59.95100211256936,
left,go,1,0,1,0,2,1,13,0,534.2306160926819,None,1,0.6848039627075195,534.2306160926819,None,535.0273480415344,None,536.008651971817,536.3611590862274,536.008651971817,536.3611590862274,535.0273480415344,None,535.0273480415344,None,535.0273480415344,None,-1,-1,1,True,319.047212600708,820.063591003418,left,538.0667381286621,None,pp_09,icub,clamp,2021_Dec_22_1023,exp,2021.2.3,59.95100211256936,
right,stop,1,0,1,0,2,2,14,5,538.572515964508,None,1,0.4902219772338867,538.572515964508,None,539.1781449317932,None,540.2026250362396,540.5560050010681,540.2026250362396,540.5560050010681,539.1781449317932,None,539.1781449317932,None,539.1781449317932,None,750,650,1,True,296.23866081237793,-1.0,-1,544.3838050365448,None,pp_09,icub,clamp,2021_Dec_22_1023,exp,2021.2.3,59.95100211256936,
right,go,1,0,1,0,2,3,15,3,544.9145729541779,None,1,0.5959081649780273,544.9145729541779,None,545.5904200077057,None,546.601912021637,546.9532449245453,546.601912021637,546.9532449245453,545.5904200077057,None,545.5904200077057,None,545.5904200077057,None,-1,-1,1,True,263.27991485595703,784.9643230438232,right,548.5296311378479,None,pp_09,icub,clamp,2021_Dec_22_1023,exp,2021.2.3,59.95100211256936,
right,stop,1,0,1,0,2,4,16,5,549.0623409748077,None,1,0.5820620059967041,549.0623409748077,None,549.7299470901489,None,550.7622561454773,551.1251609325409,550.7622561454773,551.1251609325409,549.7299470901489,None,549.7299470901489,None,549.7299470901489,None,750,700,1,True,435.90378761291504,-1.0,-1,555.0498359203339,None,pp_09,icub,clamp,2021_Dec_22_1023,exp,2021.2.3,59.95100211256936,
left,go,1,0,1,0,2,5,17,0,555.5803899765015,None,1,0.3049759864807129,555.5803899765015,None,556.0071680545807,None,556.9884691238403,557.3239130973816,556.9884691238403,557.3239130973816,556.0071680545807,None,556.0071680545807,None,556.0071680545807,None,-1,-1,1,True,368.61133575439453,1178.0571937561035,left,559.4470119476318,None,pp_09,icub,clamp,2021_Dec_22_1023,exp,2021.2.3,59.95100211256936,
right,go,1,0,1,0,3,0,18,3,559.9632160663605,None,1,0.5355560779571533,559.9632160663605,None,560.6032509803772,None,561.602756023407,561.9514660835266,561.602756023407,561.9514660835266,560.6032509803772,None,560.6032509803772,None,560.6032509803772,None,-1,-1,1,True,307.60741233825684,1018.6963081359863,right,563.8074610233307,None,pp_09,icub,clamp,2021_Dec_22_1023,exp,2021.2.3,59.95100211256936,
left,go,1,0,1,0,3,1,19,0,564.3266339302063,None,1,0.5155899524688721,564.3266339302063,None,564.9274230003357,None,565.9550950527191,566.3112909793854,565.9550950527191,566.3112909793854,564.9274230003357,None,564.9274230003357,None,564.9274230003357,None,-1,-1,1,True,309.54527854919434,1274.2574214935303,left,568.4122490882874,None,pp_09,icub,clamp,2021_Dec_22_1023,exp,2021.2.3,59.95100211256936,
right,go,1,0,1,0,3,2,20,4,568.9311480522156,None,1,0.5338470935821533,568.9311480522156,None,569.5927591323853,None,570.6032929420471,570.9553980827332,570.6032929420471,570.9553980827332,569.5927591323853,None,569.5927591323853,None,569.5927591323853,None,-1,-1,1,True,225.64983367919922,1094.5756435394287,right,572.8087470531464,None,pp_09,icub,clamp,2021_Dec_22_1023,exp,2021.2.3,59.95100211256936,
left,go,1,0,1,0,3,3,21,1,573.3253691196442,None,1,0.4131929874420166,573.3253691196442,None,573.8626639842987,None,574.8712360858917,575.2267050743103,574.8712360858917,575.2267050743103,573.8626639842987,None,573.8626639842987,None,573.8626639842987,None,-1,-1,1,True,285.74538230895996,875.1029968261719,left,576.911199092865,None,pp_09,icub,clamp,2021_Dec_22_1023,exp,2021.2.3,59.95100211256936,
right,stop,1,0,1,0,3,4,22,5,577.4306790828705,None,1,0.5000319480895996,577.4306790828705,None,578.0377359390259,None,579.0350720882416,579.3882179260254,579.0350720882416,579.3882179260254,578.0377359390259,None,578.0377359390259,None,578.0377359390259,None,750,750,1,True,281.8129062652588,-1.0,-1,583.2022979259491,None,pp_09,icub,clamp,2021_Dec_22_1023,exp,2021.2.3,59.95100211256936,
right,go,1,0,1,0,3,5,23,3,583.7334520816803,None,1,0.584852933883667,583.7334520816803,None,584.4073791503906,None,585.3877320289612,585.7314541339874,585.3877320289612,585.7314541339874,584.4073791503906,None,584.4073791503906,None,584.4073791503906,None,-1,-1,1,True,280.66205978393555,932.7731132507324,right,587.5148220062256,None,pp_09,icub,clamp,2021_Dec_22_1023,exp,2021.2.3,59.95100211256936,
left,stop,1,0,1,0,4,0,24,2,588.018669128418,None,1,0.5923490524291992,588.018669128418,None,588.7442259788513,None,589.7594771385193,590.1149561405182,589.7594771385193,590.1149561405182,588.7442259788513,None,588.7442259788513,None,588.7442259788513,None,750,800,0,True,315.1524066925049,875.877857208252,left,591.8336839675903,None,pp_09,icub,clamp,2021_Dec_22_1023,exp,2021.2.3,59.95100211256936,
left,stop,1,0,1,0,4,1,25,2,592.3446619510651,None,1,0.7008328437805176,592.3446619510651,None,593.1364600658417,None,594.1415469646454,594.4982879161835,594.1415469646454,594.4982879161835,593.1364600658417,None,593.1364600658417,None,593.1364600658417,None,700,800,1,True,325.95086097717285,-1.0,-1,598.3508589267731,None,pp_09,icub,clamp,2021_Dec_22_1023,exp,2021.2.3,59.95100211256936,
left,go,1,0,1,0,4,2,26,1,598.8449850082397,None,1,0.30417895317077637,598.8449850082397,None,599.2719750404358,None,600.2557859420776,600.6141629219055,600.2557859420776,600.6141629219055,599.2719750404358,None,599.2719750404358,None,599.2719750404358,None,-1,-1,1,True,289.7369861602783,825.2594470977783,left,602.2575669288635,None,pp_09,icub,clamp,2021_Dec_22_1023,exp,2021.2.3,59.95100211256936,
left,stop,1,0,1,0,4,3,27,2,602.7770459651947,None,1,0.5244529247283936,602.7770459651947,None,603.3820080757141,None,604.3752601146698,604.7247769832611,604.3752601146698,604.7247769832611,603.3820080757141,None,603.3820080757141,None,603.3820080757141,None,750,800,1,True,278.74279022216797,-1.0,-1,608.5341129302979,None,pp_09,icub,clamp,2021_Dec_22_1023,exp,2021.2.3,59.95100211256936,
left,go,1,0,1,0,4,4,28,1,609.0664989948273,None,1,3.192584991455078,609.0664989948273,None,612.3440411090851,None,613.3247900009155,613.6775691509247,613.3247900009155,613.6775691509247,612.3440411090851,None,612.3440411090851,None,612.3440411090851,None,-1,-1,1,True,480.29637336730957,820.8925724029541,left,615.5131530761719,None,pp_09,icub,clamp,2021_Dec_22_1023,exp,2021.2.3,59.95100211256936,
right,go,1,0,1,0,4,5,29,4,616.0260901451111,None,1,0.7273428440093994,616.0260901451111,None,616.8741719722748,None,617.8671960830688,618.2217071056366,617.8671960830688,618.2217071056366,616.8741719722748,None,616.8741719722748,None,616.8741719722748,None,-1,-1,1,True,790.9555435180664,776.3688564300537,right,620.3161981105804,None,pp_09,icub,clamp,2021_Dec_22_1023,exp,2021.2.3,59.95100211256936,
right,go,1,0,1,0,5,0,30,4,620.8193380832672,None,1,0.5522160530090332,620.8193380832672,None,621.4869229793549,None,622.4935691356659,622.8391489982605,622.4935691356659,622.8391489982605,621.4869229793549,None,621.4869229793549,None,621.4869229793549,None,-1,-1,1,True,433.2418441772461,876.2967586517334,right,624.6818799972534,None,pp_09,icub,clamp,2021_Dec_22_1023,exp,2021.2.3,59.95100211256936,
left,stop,1,0,1,0,5,1,31,2,625.1997859477997,None,1,0.4200918674468994,625.1997859477997,None,625.7386040687561,None,626.7389299869537,627.0806610584259,626.7389299869537,627.0806610584259,625.7386040687561,None,625.7386040687561,None,625.7386040687561,None,800,800,0,True,352.7848720550537,814.3718242645264,left,628.7850949764252,None,pp_09,icub,clamp,2021_Dec_22_1023,exp,2021.2.3,59.95100211256936,
right,go,1,0,1,0,5,2,32,4,629.3044130802155,None,1,0.998201847076416,629.3044130802155,None,630.4027650356293,None,631.4322600364685,631.7889189720154,631.4322600364685,631.7889189720154,630.4027650356293,None,630.4027650356293,None,630.4027650356293,None,-1,-1,1,True,382.6782703399658,824.9187469482422,right,633.51930809021,None,pp_09,icub,clamp,2021_Dec_22_1023,exp,2021.2.3,59.95100211256936,
left,go,1,0,1,0,5,3,33,0,634.0236489772797,None,1,0.5380849838256836,634.0236489772797,None,634.6768460273743,None,635.6878259181976,636.0530531406403,635.6878259181976,636.0530531406403,634.6768460273743,None,634.6768460273743,None,634.6768460273743,None,-1,-1,1,True,338.12856674194336,1025.9699821472168,left,637.9381670951843,None,pp_09,icub,clamp,2021_Dec_22_1023,exp,2021.2.3,59.95100211256936,
right,go,1,0,1,0,5,4,34,3,638.4578230381012,None,1,0.5015239715576172,638.4578230381012,None,639.0658669471741,None,640.090322971344,640.4526770114899,640.090322971344,640.4526770114899,639.0658669471741,None,639.0658669471741,None,639.0658669471741,None,-1,-1,1,True,305.9864044189453,957.6535224914551,right,642.2052910327911,None,pp_09,icub,clamp,2021_Dec_22_1023,exp,2021.2.3,59.95100211256936,
right,go,1,0,1,0,5,5,35,3,642.7121779918671,None,1,0.31537795066833496,642.7121779918671,None,643.1340620517731,None,644.1450779438019,644.4962630271912,644.1450779438019,644.4962630271912,643.1340620517731,None,643.1340620517731,None,643.1340620517731,None,-1,-1,1,True,324.8898983001709,1091.8002128601074,right,646.4432709217072,None,pp_09,icub,clamp,2021_Dec_22_1023,exp,2021.2.3,59.95100211256936,
left,go,1,0,1,0,6,0,36,1,646.9699189662933,None,1,0.3096029758453369,646.9699189662933,None,647.38902592659,None,648.403559923172,648.7642209529877,648.403559923172,648.7642209529877,647.38902592659,None,647.38902592659,None,647.38902592659,None,-1,-1,1,True,329.88858222961426,1033.2915782928467,left,650.6507761478424,None,pp_09,icub,clamp,2021_Dec_22_1023,exp,2021.2.3,59.95100211256936,
right,go,1,0,1,0,6,1,37,4,651.1796460151672,None,1,0.35492992401123047,651.1796460151672,None,651.6582579612732,None,652.6686460971832,653.0119829177856,652.6686460971832,653.0119829177856,651.6582579612732,None,651.6582579612732,None,651.6582579612732,None,-1,-1,1,True,333.1613540649414,1028.3169746398926,right,654.89470911026,None,pp_09,icub,clamp,2021_Dec_22_1023,exp,2021.2.3,59.95100211256936,
left,go,1,0,1,0,6,2,38,1,655.4107921123505,None,1,0.5496459007263184,655.4107921123505,None,656.0737090110779,None,657.0693929195404,657.4244070053101,657.0693929195404,657.4244070053101,656.0737090110779,None,656.0737090110779,None,656.0737090110779,None,-1,-1,1,True,337.99004554748535,1079.7035694122314,left,659.365364074707,None,pp_09,icub,clamp,2021_Dec_22_1023,exp,2021.2.3,59.95100211256936,
right,stop,1,0,1,0,6,3,39,5,659.8750779628754,None,1,0.4893779754638672,659.8750779628754,None,660.4784569740295,None,661.4767870903015,661.8221130371094,661.4767870903015,661.8221130371094,660.4784569740295,None,660.4784569740295,None,660.4784569740295,None,750,800,0,True,421.56004905700684,777.38356590271,right,663.5910511016846,None,pp_09,icub,clamp,2021_Dec_22_1023,exp,2021.2.3,59.95100211256936,
right,go,1,0,1,0,6,4,40,3,664.1040239334106,None,1,0.5703928470611572,664.1040239334106,None,664.7756650447845,None,665.7716870307922,666.122640132904,665.7716870307922,666.122640132904,664.7756650447845,None,664.7756650447845,None,664.7756650447845,None,-1,-1,1,True,302.276611328125,721.2576866149902,right,667.678102016449,None,pp_09,icub,clamp,2021_Dec_22_1023,exp,2021.2.3,59.95100211256936,
left,stop,1,0,1,0,6,5,41,2,668.194188117981,None,1,0.29114317893981934,668.194188117981,None,668.6045620441437,None,669.6054971218109,669.9600429534912,669.6054971218109,669.9600429534912,668.6045620441437,None,668.6045620441437,None,668.6045620441437,None,750,750,1,True,297.05262184143066,-1.0,-1,673.7876360416412,None,pp_09,icub,clamp,2021_Dec_22_1023,exp,2021.2.3,59.95100211256936,
right,stop,1,0,1,0,7,0,42,5,674.3185839653015,None,1,0.342257022857666,674.3185839653015,None,674.7459769248962,None,675.7299230098724,676.0866000652313,675.7299230098724,676.0866000652313,674.7459769248962,None,674.7459769248962,None,674.7459769248962,None,800,750,0,True,338.6058807373047,799.149751663208,right,677.7619309425354,None,pp_09,icub,clamp,2021_Dec_22_1023,exp,2021.2.3,59.95100211256936,
right,stop,1,0,1,0,7,1,43,5,678.256443977356,None,1,0.5318319797515869,678.256443977356,None,678.9159541130066,None,679.9465100765228,680.3099229335785,679.9465100765228,680.3099229335785,678.9159541130066,None,678.9159541130066,None,678.9159541130066,None,800,700,1,True,473.02961349487305,-1.0,-1,684.2785749435425,None,pp_09,icub,clamp,2021_Dec_22_1023,exp,2021.2.3,59.95100211256936,
right,stop,1,0,1,0,7,2,44,5,684.7731621265411,None,1,0.2966752052307129,684.7731621265411,None,685.199746131897,None,686.1849341392517,686.5408499240875,686.1849341392517,686.5408499240875,685.199746131897,None,685.199746131897,None,685.199746131897,None,800,750,0,True,405.54070472717285,724.2462635040283,right,688.2359499931335,None,pp_09,icub,clamp,2021_Dec_22_1023,exp,2021.2.3,59.95100211256936,
right,go,1,0,1,0,7,3,45,4,688.7529640197754,None,1,0.5229990482330322,688.7529640197754,None,689.3880069255829,None,690.4003469944,690.7453291416168,690.4003469944,690.7453291416168,689.3880069255829,None,689.3880069255829,None,689.3880069255829,None,-1,-1,1,True,540.2257442474365,862.2550964355469,right,692.672297000885,None,pp_09,icub,clamp,2021_Dec_22_1023,exp,2021.2.3,59.95100211256936,
right,go,1,0,1,0,7,4,46,3,693.1903729438782,None,1,0.3271009922027588,693.1903729438782,None,693.6078879833221,None,694.6022720336914,694.9447550773621,694.6022720336914,694.9447550773621,693.6078879833221,None,693.6078879833221,None,693.6078879833221,None,-1,-1,1,True,431.75578117370605,850.5403995513916,right,696.7827899456024,None,pp_09,icub,clamp,2021_Dec_22_1023,exp,2021.2.3,59.95100211256936,
left,go,1,0,1,0,7,5,47,1,697.3023381233215,None,1,0.2649400234222412,697.3023381233215,None,697.6566281318665,None,698.6614811420441,699.0320191383362,698.6614811420441,699.0320191383362,697.6566281318665,None,697.6566281318665,None,697.6566281318665,None,-1,-1,1,True,489.23206329345703,974.395751953125,left,701.0272150039673,None,pp_09,icub,clamp,2021_Dec_22_1023,exp,2021.2.3,59.95100211256936,
right,go,1,0,1,0,8,0,48,3,701.5388579368591,None,1,0.2522318363189697,701.5388579368591,None,701.8974039554596,None,702.9225981235504,703.2667479515076,702.9225981235504,703.2667479515076,701.8974039554596,None,701.8974039554596,None,701.8974039554596,None,-1,-1,1,True,368.60132217407227,681.0908317565918,right,704.844507932663,None,pp_09,icub,clamp,2021_Dec_22_1023,exp,2021.2.3,59.95100211256936,
left,go,1,0,1,0,8,1,49,0,705.3513190746307,None,1,0.30500006675720215,705.3513190746307,None,705.7656679153442,None,706.7651519775391,707.1269900798798,706.7651519775391,707.1269900798798,705.7656679153442,None,705.7656679153442,None,705.7656679153442,None,-1,-1,1,True,485.0914478302002,676.8271923065186,left,708.802873134613,None,pp_09,icub,clamp,2021_Dec_22_1023,exp,2021.2.3,59.95100211256936,
left,go,1,0,1,0,8,2,50,1,709.3372330665588,None,1,0.3141460418701172,709.3372330665588,None,709.7582459449768,None,710.786297082901,711.1411719322205,710.786297082901,711.1411719322205,709.7582459449768,None,709.7582459449768,None,709.7582459449768,None,-1,-1,1,True,611.0296249389648,711.5232944488525,left,712.9757161140442,None,pp_09,icub,clamp,2021_Dec_22_1023,exp,2021.2.3,59.95100211256936,
left,go,1,0,1,0,8,3,51,1,713.487645149231,None,1,0.32466602325439453,713.487645149231,None,713.9083740711212,None,714.9107630252838,715.2593269348145,714.9107630252838,715.2593269348145,713.9083740711212,None,713.9083740711212,None,713.9083740711212,None,-1,-1,1,True,475.6293296813965,910.5124473571777,left,717.1736860275269,None,pp_09,icub,clamp,2021_Dec_22_1023,exp,2021.2.3,59.95100211256936,
left,go,1,0,1,0,8,4,52,0,717.6934559345245,None,1,0.3116269111633301,717.6934559345245,None,718.1116230487823,None,719.1295721530914,719.4766359329224,719.1295721530914,719.4766359329224,718.1116230487823,None,718.1116230487823,None,718.1116230487823,None,-1,-1,1,True,447.3083019256592,778.1310081481934,left,721.2188630104065,None,pp_09,icub,clamp,2021_Dec_22_1023,exp,2021.2.3,59.95100211256936,
left,go,1,0,1,0,8,5,53,0,721.7319960594177,None,1,0.3412930965423584,721.7319960594177,None,722.2065320014954,None,723.2187979221344,723.5787861347198,723.2187979221344,723.5787861347198,722.2065320014954,None,722.2065320014954,None,722.2065320014954,None,-1,-1,1,True,413.6085510253906,963.371992111206,left,725.4857890605927,None,pp_09,icub,clamp,2021_Dec_22_1023,exp,2021.2.3,59.95100211256936,
left,stop,1,0,1,0,9,0,54,2,725.9961960315704,None,1,0.25078415870666504,725.9961960315704,None,726.3536610603333,None,727.3711159229279,727.732903957367,727.3711159229279,727.732903957367,726.3536610603333,None,726.3536610603333,None,726.3536610603333,None,800,700,0,True,364.271879196167,890.4192447662354,left,729.5247459411621,None,pp_09,icub,clamp,2021_Dec_22_1023,exp,2021.2.3,59.95100211256936,
right,stop,1,0,1,0,9,1,55,5,730.046471118927,None,1,0.36855101585388184,730.046471118927,None,730.5313251018524,None,731.5293109416962,731.8898949623108,731.5293109416962,731.8898949623108,730.5313251018524,None,730.5313251018524,None,730.5313251018524,None,750,700,1,True,423.4580993652344,-1.0,-1,735.8362231254578,None,pp_09,icub,clamp,2021_Dec_22_1023,exp,2021.2.3,59.95100211256936,
left,go,1,0,1,0,9,2,56,0,736.3309080600739,None,1,1.9916810989379883,736.3309080600739,None,738.4324519634247,None,739.4200110435486,739.7857871055603,739.4200110435486,739.7857871055603,738.4324519634247,None,738.4324519634247,None,738.4324519634247,None,-1,-1,1,True,597.4795818328857,888.2615566253662,left,741.7906060218811,None,pp_09,icub,clamp,2021_Dec_22_1023,exp,2021.2.3,59.95100211256936,
right,go,1,0,1,0,9,3,57,4,742.3055140972137,None,1,0.6498570442199707,742.3055140972137,None,743.0361590385437,None,744.0367090702057,744.3811371326447,744.0367090702057,744.3811371326447,743.0361590385437,None,743.0361590385437,None,743.0361590385437,None,-1,-1,1,True,572.0236301422119,817.3911571502686,right,746.331148147583,None,pp_09,icub,clamp,2021_Dec_22_1023,exp,2021.2.3,59.95100211256936,
right,go,1,0,1,0,9,4,58,4,746.8656470775604,None,1,0.32171106338500977,746.8656470775604,None,747.288232088089,None,748.320965051651,748.6814370155334,748.320965051651,748.6814370155334,747.288232088089,None,747.288232088089,None,747.288232088089,None,-1,-1,1,True,502.90679931640625,822.5207328796387,right,750.4924421310425,None,pp_09,icub,clamp,2021_Dec_22_1023,exp,2021.2.3,59.95100211256936,
right,go,1,0,1,0,9,5,59,3,750.9953300952911,None,1,0.4509739875793457,750.9953300952911,None,751.5368881225586,None,752.5572879314423,752.918298959732,752.5572879314423,752.918298959732,751.5368881225586,None,751.5368881225586,None,751.5368881225586,None,-1,-1,1,True,439.3174648284912,768.589973449707,right,754.6311991214752,None,pp_09,icub,clamp,2021_Dec_22_1023,exp,2021.2.3,59.95100211256936,
right,go,1,0,1,0,10,0,60,3,755.1660001277924,None,1,0.3790750503540039,755.1660001277924,None,755.6455631256104,None,756.6422469615936,756.9840090274811,756.6422469615936,756.9840090274811,755.6455631256104,None,755.6455631256104,None,755.6455631256104,None,-1,-1,1,True,371.3514804840088,784.0304374694824,right,758.6950790882111,None,pp_09,icub,clamp,2021_Dec_22_1023,exp,2021.2.3,59.95100211256936,
left,go,1,0,1,0,10,1,61,1,759.2084050178528,None,1,0.7935881614685059,759.2084050178528,None,760.1210031509399,None,761.1257791519165,761.4759149551392,761.1257791519165,761.4759149551392,760.1210031509399,None,760.1210031509399,None,760.1210031509399,None,-1,-1,1,True,401.98779106140137,790.2929782867432,left,763.2011680603027,None,pp_09,icub,clamp,2021_Dec_22_1023,exp,2021.2.3,59.95100211256936,
right,stop,1,0,1,0,10,2,62,5,763.7341210842133,None,1,0.3879659175872803,763.7341210842133,None,764.2175440788269,None,765.2108781337738,765.5440249443054,765.2108781337738,765.5440249443054,764.2175440788269,None,764.2175440788269,None,764.2175440788269,None,750,750,0,True,374.9980926513672,671.5176105499268,right,767.1696350574493,None,pp_09,icub,clamp,2021_Dec_22_1023,exp,2021.2.3,59.95100211256936,
right,go,1,0,1,0,10,3,63,4,767.6834840774536,None,1,0.6906211376190186,767.6834840774536,None,768.4742629528046,None,769.4906921386719,769.8518841266632,769.4906921386719,769.8518841266632,768.4742629528046,None,768.4742629528046,None,768.4742629528046,None,-1,-1,1,True,383.5287094116211,708.1398963928223,right,771.4827260971069,None,pp_09,icub,clamp,2021_Dec_22_1023,exp,2021.2.3,59.95100211256936,
left,stop,1,0,1,0,10,4,64,2,772.0000331401825,None,1,0.4282400608062744,772.0000331401825,None,772.5430080890656,None,773.5484440326691,773.8972060680389,773.5484440326691,773.8972060680389,772.5430080890656,None,772.5430080890656,None,772.5430080890656,None,750,700,0,True,498.2333183288574,652.637243270874,left,775.5747230052948,None,pp_09,icub,clamp,2021_Dec_22_1023,exp,2021.2.3,59.95100211256936,
left,go,1,0,1,0,10,5,65,0,776.0965559482574,None,1,0.7755310535430908,776.0965559482574,None,776.9525871276855,None,777.959911108017,778.2864429950714,777.959911108017,778.2864429950714,776.9525871276855,None,776.9525871276855,None,776.9525871276855,None,-1,-1,1,True,384.5803737640381,775.1145362854004,left,780.022999048233,None,pp_09,icub,clamp,2021_Dec_22_1023,exp,2021.2.3,59.95100211256936,
left,stop,1,0,1,0,11,0,66,2,780.544548034668,None,1,0.427854061126709,780.544548034668,None,781.0790419578552,None,782.0815711021423,782.4280021190643,782.0815711021423,782.4280021190643,781.0790419578552,None,781.0790419578552,None,781.0790419578552,None,700,700,0,True,311.09070777893066,723.3667373657227,left,783.9926600456238,None,pp_09,icub,clamp,2021_Dec_22_1023,exp,2021.2.3,59.95100211256936,
left,go,1,0,1,0,11,1,67,1,784.5037050247192,None,1,0.47521400451660156,784.5037050247192,None,785.1028831005096,None,786.1155970096588,786.4711799621582,786.1155970096588,786.4711799621582,785.1028831005096,None,785.1028831005096,None,785.1028831005096,None,-1,-1,1,True,335.4337215423584,923.2158660888672,left,788.2595510482788,None,pp_09,icub,clamp,2021_Dec_22_1023,exp,2021.2.3,59.95100211256936,
right,stop,1,0,1,0,11,2,68,5,788.7756109237671,None,1,0.3582799434661865,788.7756109237671,None,789.2586469650269,None,790.2701840400696,790.6348240375519,790.2701840400696,790.6348240375519,789.2586469650269,None,789.2586469650269,None,789.2586469650269,None,650,700,1,True,303.2233715057373,-1.0,-1,794.4677441120148,None,pp_09,icub,clamp,2021_Dec_22_1023,exp,2021.2.3,59.95100211256936,
right,go,1,0,1,0,11,3,69,4,794.9998400211334,None,1,0.47083306312561035,794.9998400211334,None,795.5500071048737,None,796.5231721401215,796.8775429725647,796.5231721401215,796.8775429725647,795.5500071048737,None,795.5500071048737,None,795.5500071048737,None,-1,-1,1,True,474.3516445159912,687.7191066741943,right,798.6005029678345,None,pp_09,icub,clamp,2021_Dec_22_1023,exp,2021.2.3,59.95100211256936,
right,stop,1,0,1,0,11,4,70,5,799.1195840835571,None,1,0.37622690200805664,799.1195840835571,None,799.6015870571136,None,800.6300930976868,800.989706993103,800.6300930976868,800.989706993103,799.6015870571136,None,799.6015870571136,None,799.6015870571136,None,650,750,0,True,371.4432716369629,746.2384700775146,right,802.6333520412445,None,pp_09,icub,clamp,2021_Dec_22_1023,exp,2021.2.3,59.95100211256936,
left,go,1,0,1,0,11,5,71,1,803.1469070911407,None,1,0.5568099021911621,803.1469070911407,None,803.8097140789032,None,804.8413290977478,805.1932210922241,804.8413290977478,805.1932210922241,803.8097140789032,None,803.8097140789032,None,803.8097140789032,None,-1,-1,1,True,416.2721633911133,955.0247192382812,left,807.059415102005,None,pp_09,icub,clamp,2021_Dec_22_1023,exp,2021.2.3,59.95100211256936,
left,go,1,0,1,0,12,0,72,0,807.5769519805908,None,1,0.3955650329589844,807.5769519805908,None,808.0581409931183,None,809.0689921379089,809.4178819656372,809.0689921379089,809.4178819656372,808.0581409931183,None,808.0581409931183,None,808.0581409931183,None,-1,-1,1,True,340.34228324890137,1023.6673355102539,left,811.3083081245422,None,pp_09,icub,clamp,2021_Dec_22_1023,exp,2021.2.3,59.95100211256936,
left,go,1,0,1,0,12,1,73,0,811.8261759281158,None,1,0.5285751819610596,811.8261759281158,None,812.430223941803,None,813.4448590278625,813.7849540710449,813.4448590278625,813.7849540710449,812.430223941803,None,812.430223941803,None,812.430223941803,None,-1,-1,1,True,426.0678291320801,739.7267818450928,left,815.4701130390167,None,pp_09,icub,clamp,2021_Dec_22_1023,exp,2021.2.3,59.95100211256936,
left,go,1,0,1,0,12,2,74,1,815.9749550819397,None,1,0.4369168281555176,815.9749550819397,None,816.5075490474701,None,817.5413911342621,817.9068279266357,817.5413911342621,817.9068279266357,816.5075490474701,None,816.5075490474701,None,816.5075490474701,None,-1,-1,1,True,327.4087905883789,910.2568626403809,left,819.6323239803314,None,pp_09,icub,clamp,2021_Dec_22_1023,exp,2021.2.3,59.95100211256936,
right,go,1,0,1,0,12,3,75,3,820.1691179275513,None,1,0.338792085647583,820.1691179275513,None,820.5885651111603,None,821.6201369762421,821.970358133316,821.6201369762421,821.970358133316,820.5885651111603,None,820.5885651111603,None,820.5885651111603,None,-1,-1,1,True,404.97374534606934,1120.471715927124,right,823.9862809181213,None,pp_09,icub,clamp,2021_Dec_22_1023,exp,2021.2.3,59.95100211256936,
left,go,1,0,1,0,12,4,76,1,824.5057120323181,None,1,0.4610471725463867,824.5057120323181,None,825.0473389625549,None,826.0768320560455,826.4335701465607,826.0768320560455,826.4335701465607,825.0473389625549,None,825.0473389625549,None,825.0473389625549,None,-1,-1,1,True,316.0245418548584,950.9756565093994,left,828.1898391246796,None,pp_09,icub,clamp,2021_Dec_22_1023,exp,2021.2.3,59.95100211256936,
left,stop,1,0,1,0,12,5,77,2,828.697968006134,None,1,0.4125537872314453,828.697968006134,None,829.2388300895691,None,830.2686460018158,830.6197240352631,830.2686460018158,830.6197240352631,829.2388300895691,None,829.2388300895691,None,829.2388300895691,None,650,700,1,True,336.78293228149414,-1.0,-1,834.4863369464874,None,pp_09,icub,clamp,2021_Dec_22_1023,exp,2021.2.3,59.95100211256936,
right,stop,2,0,2,0,0,0,0,5,846.517627954483,None,1,14.23627495765686,846.517627954483,None,860.8395960330963,None,861.8339021205902,862.1906270980835,861.8339021205902,862.1906270980835,860.8395960330963,None,860.8395960330963,None,860.8395960330963,None,700,700,0,True,519.2992687225342,629.9011707305908,right,863.8766241073608,None,pp_09,icub,clamp,2021_Dec_22_1023,exp,2021.2.3,59.95100211256936,
left,go,2,0,2,0,0,1,1,1,864.3902361392975,None,1,0.9754161834716797,864.3902361392975,None,865.4813079833984,None,866.4966099262238,866.8571081161499,866.4966099262238,866.8571081161499,865.4813079833984,None,865.4813079833984,None,865.4813079833984,None,-1,-1,1,True,527.7049541473389,748.9001750946045,left,868.6563351154327,None,pp_09,icub,clamp,2021_Dec_22_1023,exp,2021.2.3,59.95100211256936,
left,go,2,0,2,0,0,2,2,0,869.1880860328674,None,1,0.6074378490447998,869.1880860328674,None,869.9162681102753,None,870.9284119606018,871.2761900424957,870.9284119606018,871.2761900424957,869.9162681102753,None,869.9162681102753,None,869.9162681102753,None,-1,-1,1,True,393.5680389404297,727.2014617919922,left,872.9472510814667,None,pp_09,icub,clamp,2021_Dec_22_1023,exp,2021.2.3,59.95100211256936,
left,stop,2,0,2,0,0,3,3,2,873.4508540630341,None,1,0.4207189083099365,873.4508540630341,None,873.9918389320374,None,875.0087151527405,875.3786599636078,875.0087151527405,875.3786599636078,873.9918389320374,None,873.9918389320374,None,873.9918389320374,None,700,650,0,True,379.4548511505127,865.4847145080566,left,877.1128160953522,None,pp_09,icub,clamp,2021_Dec_22_1023,exp,2021.2.3,59.95100211256936,
left,stop,2,0,2,0,0,4,4,2,877.6305720806122,None,1,0.8049590587615967,877.6305720806122,None,878.5420770645142,None,879.5436460971832,879.897763967514,879.5436460971832,879.897763967514,878.5420770645142,None,878.5420770645142,None,878.5420770645142,None,650,650,1,True,214.8599624633789,-1.0,-1,883.6433639526367,None,pp_09,icub,clamp,2021_Dec_22_1023,exp,2021.2.3,59.95100211256936,
left,go,2,0,2,0,0,5,5,0,884.1372230052948,None,1,0.3149590492248535,884.1372230052948,None,884.5643379688263,None,885.5474889278412,885.902645111084,885.5474889278412,885.902645111084,884.5643379688263,None,884.5643379688263,None,884.5643379688263,None,-1,-1,1,True,393.2032585144043,959.6831798553467,left,887.7880439758301,None,pp_09,icub,clamp,2021_Dec_22_1023,exp,2021.2.3,59.95100211256936,
right,stop,2,0,2,0,1,0,6,5,888.3060119152069,None,1,0.34651994705200195,888.3060119152069,None,888.780709028244,None,889.8057551383972,890.1682870388031,889.8057551383972,890.1682870388031,888.780709028244,None,888.780709028244,None,888.780709028244,None,700,650,1,True,374.77779388427734,-1.0,-1,894.0667049884796,None,pp_09,icub,clamp,2021_Dec_22_1023,exp,2021.2.3,59.95100211256936,
right,go,2,0,2,0,1,1,7,3,894.5982201099396,None,1,0.2928190231323242,894.5982201099396,None,895.0234980583191,None,896.0018169879913,896.3535430431366,896.0018169879913,896.3535430431366,895.0234980583191,None,895.0234980583191,None,895.0234980583191,None,-1,-1,1,True,440.20819664001465,860.8436584472656,right,898.2231960296631,None,pp_09,icub,clamp,2021_Dec_22_1023,exp,2021.2.3,59.95100211256936,
right,go,2,0,2,0,1,2,8,3,898.7294390201569,None,1,0.34002017974853516,898.7294390201569,None,899.1498899459839,None,900.1831901073456,900.5479340553284,900.1831901073456,900.5479340553284,899.1498899459839,None,899.1498899459839,None,899.1498899459839,None,-1,-1,1,True,492.7802085876465,760.307788848877,right,902.2799990177155,None,pp_09,icub,clamp,2021_Dec_22_1023,exp,2021.2.3,59.95100211256936,
left,stop,2,0,2,0,1,3,9,2,902.7811200618744,None,1,0.4207742214202881,902.7811200618744,None,903.3259711265564,None,904.3538489341736,904.708249092102,904.3538489341736,904.708249092102,903.3259711265564,None,903.3259711265564,None,903.3259711265564,None,700,700,0,True,347.5966453552246,802.5517463684082,left,906.3889291286469,None,pp_09,icub,clamp,2021_Dec_22_1023,exp,2021.2.3,59.95100211256936,
left,go,2,0,2,0,1,4,10,1,906.9059679508209,None,1,0.42868685722351074,906.9059679508209,None,907.4434680938721,None,908.4760129451752,908.8378491401672,908.4760129451752,908.8378491401672,907.4434680938721,None,907.4434680938721,None,907.4434680938721,None,-1,-1,1,True,198.9002227783203,1059.5345497131348,left,910.5861599445343,None,pp_09,icub,clamp,2021_Dec_22_1023,exp,2021.2.3,59.95100211256936,
right,go,2,0,2,0,1,5,11,4,911.101007938385,None,1,0.2973639965057373,911.101007938385,None,911.5166680812836,None,912.5178139209747,912.8627269268036,912.5178139209747,912.8627269268036,911.5166680812836,None,911.5166680812836,None,911.5166680812836,None,-1,-1,1,True,278.22113037109375,993.3960437774658,right,914.6961491107941,None,pp_09,icub,clamp,2021_Dec_22_1023,exp,2021.2.3,59.95100211256936,
left,stop,2,0,2,0,2,0,12,2,915.2002019882202,None,1,0.30643200874328613,915.2002019882202,None,915.622309923172,None,916.6200249195099,916.9521059989929,916.6200249195099,916.9521059989929,915.622309923172,None,915.622309923172,None,915.622309923172,None,650,700,1,True,281.5885543823242,-1.0,-1,920.7989430427551,None,pp_09,icub,clamp,2021_Dec_22_1023,exp,2021.2.3,59.95100211256936,
right,go,2,0,2,0,2,1,13,4,921.3228189945221,None,1,0.5161960124969482,921.3228189945221,None,921.9303600788116,None,922.904883146286,923.2554159164429,922.904883146286,923.2554159164429,921.9303600788116,None,921.9303600788116,None,921.9303600788116,None,-1,-1,1,True,296.0786819458008,982.8386306762695,right,925.1078770160675,None,pp_09,icub,clamp,2021_Dec_22_1023,exp,2021.2.3,59.95100211256936,
left,go,2,0,2,0,2,2,14,0,925.6265859603882,None,1,0.553973913192749,925.6265859603882,None,926.2894260883331,None,927.2906110286713,927.6627869606018,927.2906110286713,927.6627869606018,926.2894260883331,None,926.2894260883331,None,926.2894260883331,None,-1,-1,1,True,279.9382209777832,1157.618761062622,left,929.6309320926666,None,pp_09,icub,clamp,2021_Dec_22_1023,exp,2021.2.3,59.95100211256936,
left,go,2,0,2,0,2,3,15,1,930.1386160850525,None,1,0.43678903579711914,930.1386160850525,None,930.6765069961548,None,931.7096090316772,932.0728299617767,931.7096090316772,932.0728299617767,930.6765069961548,None,930.6765069961548,None,930.6765069961548,None,-1,-1,1,True,294.6815490722656,1156.355857849121,left,934.0136871337891,None,pp_09,icub,clamp,2021_Dec_22_1023,exp,2021.2.3,59.95100211256936,
right,go,2,0,2,0,2,4,16,3,934.5204720497131,None,1,0.3540060520172119,934.5204720497131,None,934.9977719783783,None,936.00554895401,936.3507311344147,936.00554895401,936.3507311344147,934.9977719783783,None,934.9977719783783,None,934.9977719783783,None,-1,-1,1,True,260.19978523254395,1113.0433082580566,right,938.2595219612122,None,pp_09,icub,clamp,2021_Dec_22_1023,exp,2021.2.3,59.95100211256936,
left,go,2,0,2,0,2,5,17,0,938.774836063385,None,1,0.27364301681518555,938.774836063385,None,939.1341071128845,None,940.1354229450226,940.4820330142975,940.1354229450226,940.4820330142975,939.1341071128845,None,939.1341071128845,None,939.1341071128845,None,-1,-1,1,True,117.64740943908691,1182.511329650879,left,942.314994096756,None,pp_09,icub,clamp,2021_Dec_22_1023,exp,2021.2.3,59.95100211256936,
right,stop,2,0,2,0,3,0,18,5,942.8271889686584,None,1,0.32224082946777344,942.8271889686584,None,943.2501060962677,None,944.2489240169525,944.6185801029205,944.2489240169525,944.6185801029205,943.2501060962677,None,943.2501060962677,None,943.2501060962677,None,700,700,1,True,75.17385482788086,-1.0,-1,948.2251341342926,None,pp_09,icub,clamp,2021_Dec_22_1023,exp,2021.2.3,59.95100211256936,
right,go,2,0,2,0,3,1,19,4,948.7565441131592,None,1,0.5192639827728271,948.7565441131592,None,949.3675501346588,None,950.3819830417633,950.7390511035919,950.3819830417633,950.7390511035919,949.3675501346588,None,949.3675501346588,None,949.3675501346588,None,-1,-1,1,True,140.46192169189453,1089.25461769104,right,952.4991130828857,None,pp_09,icub,clamp,2021_Dec_22_1023,exp,2021.2.3,59.95100211256936,
right,go,2,0,2,0,3,2,20,4,953.0137629508972,None,1,0.3017427921295166,953.0137629508972,None,953.4315669536591,None,954.4415309429169,954.7961361408234,954.4415309429169,954.7961361408234,953.4315669536591,None,953.4315669536591,None,953.4315669536591,None,-1,-1,1,True,218.29748153686523,1027.0004272460938,right,956.5566799640656,None,pp_09,icub,clamp,2021_Dec_22_1023,exp,2021.2.3,59.95100211256936,
right,stop,2,0,2,0,3,3,21,5,957.0925331115723,None,1,0.3329899311065674,957.0925331115723,None,957.5108699798584,None,958.5273101329803,958.8640041351318,958.5273101329803,958.8640041351318,957.5108699798584,None,957.5108699798584,None,957.5108699798584,None,700,750,1,True,197.723388671875,-1.0,-1,962.5946490764618,None,pp_09,icub,clamp,2021_Dec_22_1023,exp,2021.2.3,59.95100211256936,
right,go,2,0,2,0,3,4,22,3,963.1261529922485,None,1,0.4846489429473877,963.1261529922485,None,963.7389659881592,None,964.7120089530945,965.0703780651093,964.7120089530945,965.0703780651093,963.7389659881592,None,963.7389659881592,None,963.7389659881592,None,,,0,False,-1.0,-1.0,-1,965.5648419857025,None,pp_09,icub,clamp,2021_Dec_22_1023,exp,2021.2.3,59.95100211256936,
left,go,2,0,2,0,3,5,23,1,966.0936119556427,None,1,0.7652750015258789,966.0936119556427,None,966.9535911083221,None,967.9360060691833,968.2917771339417,967.9360060691833,968.2917771339417,966.9535911083221,None,966.9535911083221,None,966.9535911083221,None,-1,-1,1,True,317.5945281982422,1075.15287399292,left,970.2530090808868,None,pp_09,icub,clamp,2021_Dec_22_1023,exp,2021.2.3,59.95100211256936,
right,go,2,0,2,0,4,0,24,3,970.7538759708405,None,1,0.8812429904937744,970.7538759708405,None,971.7297971248627,None,972.767128944397,973.1184561252594,972.767128944397,973.1184561252594,971.7297971248627,None,971.7297971248627,None,971.7297971248627,None,-1,-1,1,True,343.34540367126465,1041.269302368164,right,974.9927570819855,None,pp_09,icub,clamp,2021_Dec_22_1023,exp,2021.2.3,59.95100211256936,
right,go,2,0,2,0,4,1,25,3,975.5263340473175,None,1,0.7577438354492188,975.5263340473175,None,976.3773930072784,None,977.3829779624939,977.7507610321045,977.3829779624939,977.7507610321045,976.3773930072784,None,976.3773930072784,None,976.3773930072784,None,-1,-1,1,True,491.25170707702637,855.034589767456,right,979.6278460025787,None,pp_09,icub,clamp,2021_Dec_22_1023,exp,2021.2.3,59.95100211256936,
left,go,2,0,2,0,4,2,26,1,980.135899066925,None,1,0.5521230697631836,980.135899066925,None,980.8030149936676,None,981.7968320846558,982.1480350494385,981.7968320846558,982.1480350494385,980.8030149936676,None,980.8030149936676,None,980.8030149936676,None,-1,-1,1,True,451.7474174499512,989.861249923706,left,984.1218390464783,None,pp_09,icub,clamp,2021_Dec_22_1023,exp,2021.2.3,59.95100211256936,
left,stop,2,0,2,0,4,3,27,2,984.6429369449615,None,1,0.5591731071472168,984.6429369449615,None,985.308207988739,None,986.3174071311951,986.6643550395966,986.3174071311951,986.6643550395966,985.308207988739,None,985.308207988739,None,985.308207988739,None,700,800,1,True,437.74986267089844,-1.0,-1,990.6423170566559,None,pp_09,icub,clamp,2021_Dec_22_1023,exp,2021.2.3,59.95100211256936,
right,go,2,0,2,0,4,4,28,3,991.1743609905243,None,1,0.7024881839752197,991.1743609905243,None,991.9724700450897,None,992.9562621116638,993.3025889396667,992.9562621116638,993.3025889396667,991.9724700450897,None,991.9724700450897,None,991.9724700450897,None,-1,-1,1,True,368.2682514190674,880.3176879882812,right,995.12064909935,None,pp_09,icub,clamp,2021_Dec_22_1023,exp,2021.2.3,59.95100211256936,
left,go,2,0,2,0,4,5,29,1,995.6406769752502,None,1,0.5307490825653076,995.6406769752502,None,996.2469410896301,None,997.2394371032715,997.5736899375916,997.2394371032715,997.5736899375916,996.2469410896301,None,996.2469410896301,None,996.2469410896301,None,-1,-1,1,True,368.0558204650879,905.8859348297119,left,999.3937180042267,None,pp_09,icub,clamp,2021_Dec_22_1023,exp,2021.2.3,59.95100211256936,
left,go,2,0,2,0,5,0,30,1,999.911318063736,None,1,0.4864819049835205,999.911318063736,None,1000.5139260292053,None,1001.5332610607147,1001.8891551494598,1001.5332610607147,1001.8891551494598,1000.5139260292053,None,1000.5139260292053,None,1000.5139260292053,None,-1,-1,1,True,442.98839569091797,916.4502620697021,left,1003.7772860527039,None,pp_09,icub,clamp,2021_Dec_22_1023,exp,2021.2.3,59.95100211256936,
left,go,2,0,2,0,5,1,31,1,1004.2935180664062,None,1,0.33768606185913086,1004.2935180664062,None,1004.7116780281067,None,1005.7228879928589,1006.0714240074158,1005.7228879928589,1006.0714240074158,1004.7116780281067,None,1004.7116780281067,None,1004.7116780281067,None,-1,-1,1,True,384.5834732055664,984.7490787506104,left,1007.9626650810242,None,pp_09,icub,clamp,2021_Dec_22_1023,exp,2021.2.3,59.95100211256936,
left,go,2,0,2,0,5,2,32,1,1008.4988670349121,None,1,0.42821216583251953,1008.4988670349121,None,1009.0415279865265,None,1010.065348148346,1010.4166350364685,1010.065348148346,1010.4166350364685,1009.0415279865265,None,1009.0415279865265,None,1009.0415279865265,None,-1,-1,1,True,344.2215919494629,1030.5609703063965,left,1012.3168561458588,None,pp_09,icub,clamp,2021_Dec_22_1023,exp,2021.2.3,59.95100211256936,
right,go,2,0,2,0,5,3,33,4,1012.8279540538788,None,1,0.3379950523376465,1012.8279540538788,None,1013.2466361522675,None,1014.2561359405518,1014.619029045105,1014.2561359405518,1014.619029045105,1013.2466361522675,None,1013.2466361522675,None,1013.2466361522675,None,-1,-1,1,True,381.9561004638672,1021.7335224151611,right,1016.5485911369324,None,pp_09,icub,clamp,2021_Dec_22_1023,exp,2021.2.3,59.95100211256936,
right,go,2,0,2,0,5,4,34,4,1017.0577170848846,None,1,0.5514299869537354,1017.0577170848846,None,1017.7246150970459,None,1018.7314660549164,1019.0769701004028,1018.7314660549164,1019.0769701004028,1017.7246150970459,None,1017.7246150970459,None,1017.7246150970459,None,-1,-1,1,True,348.24681282043457,926.9423484802246,right,1020.8978390693665,None,pp_09,icub,clamp,2021_Dec_22_1023,exp,2021.2.3,59.95100211256936,
right,go,2,0,2,0,5,5,35,4,1021.419851064682,None,1,0.433941125869751,1021.419851064682,None,1021.9610650539398,None,1022.9736490249634,1023.315407037735,1022.9736490249634,1023.315407037735,1021.9610650539398,None,1021.9610650539398,None,1021.9610650539398,None,-1,-1,1,True,330.7363986968994,1071.112871170044,right,1025.2632570266724,None,pp_09,icub,clamp,2021_Dec_22_1023,exp,2021.2.3,59.95100211256936,
left,stop,2,0,2,0,6,0,36,2,1025.7715620994568,None,1,0.34824395179748535,1025.7715620994568,None,1026.248127937317,None,1027.2661299705505,1027.620679140091,1027.2661299705505,1027.620679140091,1026.248127937317,None,1026.248127937317,None,1026.248127937317,None,750,800,1,True,497.7529048919678,-1.0,-1,1031.637326002121,None,pp_09,icub,clamp,2021_Dec_22_1023,exp,2021.2.3,59.95100211256936,
right,go,2,0,2,0,6,1,37,4,1032.1699879169464,None,1,0.4506199359893799,1032.1699879169464,None,1032.7203640937805,None,1033.7042751312256,1034.0511100292206,1033.7042751312256,1034.0511100292206,1032.7203640937805,None,1032.7203640937805,None,1032.7203640937805,None,-1,-1,1,True,557.1177005767822,995.394229888916,right,1036.1711089611053,None,pp_09,icub,clamp,2021_Dec_22_1023,exp,2021.2.3,59.95100211256936,
right,go,2,0,2,0,6,2,38,3,1036.704988002777,None,1,0.27913618087768555,1036.704988002777,None,1037.064451932907,None,1038.0934801101685,1038.445825099945,1038.0934801101685,1038.445825099945,1037.064451932907,None,1037.064451932907,None,1037.064451932907,None,-1,-1,1,True,377.25019454956055,945.1220035552979,right,1040.2571289539337,None,pp_09,icub,clamp,2021_Dec_22_1023,exp,2021.2.3,59.95100211256936,
right,stop,2,0,2,0,6,3,39,5,1040.757416009903,None,1,0.3614780902862549,1040.757416009903,None,1041.237972021103,None,1042.2479310035706,1042.6109890937805,1042.2479310035706,1042.6109890937805,1041.237972021103,None,1041.237972021103,None,1041.237972021103,None,800,800,1,True,392.55261421203613,-1.0,-1,1046.5260090827942,None,pp_09,icub,clamp,2021_Dec_22_1023,exp,2021.2.3,59.95100211256936,
right,go,2,0,2,0,6,4,40,4,1047.0570800304413,None,1,0.33434104919433594,1047.0570800304413,None,1047.4840009212494,None,1048.467246055603,1048.8228540420532,1048.467246055603,1048.8228540420532,1047.4840009212494,None,1047.4840009212494,None,1047.4840009212494,None,-1,-1,1,True,506.41679763793945,958.1832885742188,right,1050.8180689811707,None,pp_09,icub,clamp,2021_Dec_22_1023,exp,2021.2.3,59.95100211256936,
left,stop,2,0,2,0,6,5,41,2,1051.3215780258179,None,1,0.370225191116333,1051.3215780258179,None,1051.8007400035858,None,1052.815276145935,1053.169862985611,1052.815276145935,1053.169862985611,1051.8007400035858,None,1051.8007400035858,None,1051.8007400035858,None,800,850,0,True,429.7494888305664,924.8359203338623,left,1055.0556349754333,None,pp_09,icub,clamp,2021_Dec_22_1023,exp,2021.2.3,59.95100211256936,
right,go,2,0,2,0,7,0,42,3,1055.5663130283356,None,1,0.4206581115722656,1055.5663130283356,None,1056.104856967926,None,1057.1191899776459,1057.4696531295776,1057.1191899776459,1057.4696531295776,1056.104856967926,None,1056.104856967926,None,1056.104856967926,None,-1,-1,1,True,357.88941383361816,1075.943946838379,right,1059.439504146576,None,pp_09,icub,clamp,2021_Dec_22_1023,exp,2021.2.3,59.95100211256936,
right,go,2,0,2,0,7,1,43,3,1059.9498789310455,None,1,0.2432539463043213,1059.9498789310455,None,1060.3078961372375,None,1061.3107991218567,1061.6709010601044,1061.3107991218567,1061.6709010601044,1060.3078961372375,None,1060.3078961372375,None,1060.3078961372375,None,-1,-1,1,True,401.85046195983887,816.368579864502,right,1063.4032609462738,None,pp_09,icub,clamp,2021_Dec_22_1023,exp,2021.2.3,59.95100211256936,
left,stop,2,0,2,0,7,2,44,2,1063.9192140102386,None,1,0.31784796714782715,1063.9192140102386,None,1064.3434751033783,None,1065.3498129844666,1065.70955991745,1065.3498129844666,1065.70955991745,1064.3434751033783,None,1064.3434751033783,None,1064.3434751033783,None,750,850,0,True,497.07603454589844,836.3938331604004,left,1067.582286119461,None,pp_09,icub,clamp,2021_Dec_22_1023,exp,2021.2.3,59.95100211256936,
right,stop,2,0,2,0,7,3,45,5,1068.0774409770966,None,1,0.3675830364227295,1068.0774409770966,None,1068.5602431297302,None,1069.5660390853882,1069.9212210178375,1069.5660390853882,1069.9212210178375,1068.5602431297302,None,1068.5602431297302,None,1068.5602431297302,None,700,850,1,True,260.8370780944824,-1.0,-1,1073.7160260677338,None,pp_09,icub,clamp,2021_Dec_22_1023,exp,2021.2.3,59.95100211256936,
right,go,2,0,2,0,7,4,46,4,1074.2099070549011,None,1,0.17049098014831543,1074.2099070549011,None,1074.5128300189972,None,1075.4952139854431,1075.8443789482117,1075.4952139854431,1075.8443789482117,1074.5128300189972,None,1074.5128300189972,None,1074.5128300189972,None,-1,-1,1,True,603.3692359924316,1034.1575145721436,right,1078.0178179740906,None,pp_09,icub,clamp,2021_Dec_22_1023,exp,2021.2.3,59.95100211256936,
right,stop,2,0,2,0,7,5,47,5,1078.5516979694366,None,1,0.38118505477905273,1078.5516979694366,None,1079.0329830646515,None,1080.0485560894012,1080.406404018402,1080.0485560894012,1080.406404018402,1079.0329830646515,None,1079.0329830646515,None,1079.0329830646515,None,700,900,1,True,475.827693939209,-1.0,-1,1084.4142920970917,None,pp_09,icub,clamp,2021_Dec_22_1023,exp,2021.2.3,59.95100211256936,
right,stop,2,0,2,0,8,0,48,5,1084.9465651512146,None,1,0.5418050289154053,1084.9465651512146,None,1085.6204080581665,None,1086.625060081482,1086.988883972168,1086.625060081482,1086.988883972168,1085.6204080581665,None,1085.6204080581665,None,1085.6204080581665,None,700,950,0,True,401.80444717407227,992.9933547973633,right,1088.9060590267181,None,pp_09,icub,clamp,2021_Dec_22_1023,exp,2021.2.3,59.95100211256936,
left,go,2,0,2,0,8,1,49,0,1089.4292740821838,None,1,0.5455482006072998,1089.4292740821838,None,1090.0941181182861,None,1091.1197700500488,1091.4604060649872,1091.1197700500488,1091.4604060649872,1090.0941181182861,None,1090.0941181182861,None,1090.0941181182861,None,-1,-1,1,True,439.65601921081543,1087.6293182373047,left,1093.5165491104126,None,pp_09,icub,clamp,2021_Dec_22_1023,exp,2021.2.3,59.95100211256936,
right,stop,2,0,2,0,8,2,50,5,1094.030699968338,None,1,0.6699790954589844,1094.030699968338,None,1094.8198630809784,None,1095.8275530338287,1096.1869990825653,1095.8275530338287,1096.1869990825653,1094.8198630809784,None,1094.8198630809784,None,1094.8198630809784,None,700,900,1,True,629.5566558837891,-1.0,-1,1100.3405830860138,None,pp_09,icub,clamp,2021_Dec_22_1023,exp,2021.2.3,59.95100211256936,
left,go,2,0,2,0,8,3,51,0,1100.8717300891876,None,1,0.6585061550140381,1100.8717300891876,None,1101.6694130897522,None,1102.6439549922943,1102.99112200737,1102.6439549922943,1102.99112200737,1101.6694130897522,None,1101.6694130897522,None,1101.6694130897522,None,-1,-1,1,True,545.6531047821045,1204.7069072723389,left,1105.3107011318207,None,pp_09,icub,clamp,2021_Dec_22_1023,exp,2021.2.3,59.95100211256936,
right,stop,2,0,2,0,8,4,52,5,1105.8162999153137,None,1,0.6447169780731201,1105.8162999153137,None,1106.5438480377197,None,1107.564157962799,1107.9111020565033,1107.564157962799,1107.9111020565033,1106.5438480377197,None,1106.5438480377197,None,1106.5438480377197,None,700,950,1,True,319.3345069885254,-1.0,-1,1111.7570941448212,None,pp_09,icub,clamp,2021_Dec_22_1023,exp,2021.2.3,59.95100211256936,
left,go,2,0,2,0,8,5,53,0,1112.2906761169434,None,1,0.36451005935668945,1112.2906761169434,None,1112.779294013977,None,1113.762748003006,1114.1310970783234,1113.762748003006,1114.1310970783234,1112.779294013977,None,1112.779294013977,None,1112.779294013977,None,-1,-1,1,True,481.69660568237305,1103.1482219696045,left,1116.2455780506134,None,pp_09,icub,clamp,2021_Dec_22_1023,exp,2021.2.3,59.95100211256936,
left,go,2,0,2,0,9,0,54,1,1116.7602059841156,None,1,0.4745938777923584,1116.7602059841156,None,1117.3624651432037,None,1118.370229959488,1118.7260429859161,1118.370229959488,1118.7260429859161,1117.3624651432037,None,1117.3624651432037,None,1117.3624651432037,None,-1,-1,1,True,407.47618675231934,1404.1810035705566,left,1121.0604319572449,None,pp_09,icub,clamp,2021_Dec_22_1023,exp,2021.2.3,59.95100211256936,
left,stop,2,0,2,0,9,1,55,2,1121.5602531433105,None,1,0.34829092025756836,1121.5602531433105,None,1122.0368621349335,None,1123.058119058609,1123.4046700000763,1123.058119058609,1123.4046700000763,1122.0368621349335,None,1122.0368621349335,None,1122.0368621349335,None,700,1000,1,True,353.71971130371094,-1.0,-1,1127.2769839763641,None,pp_09,icub,clamp,2021_Dec_22_1023,exp,2021.2.3,59.95100211256936,
left,stop,2,0,2,0,9,2,56,2,1127.8085300922394,None,1,0.3417811393737793,1127.8085300922394,None,1128.2350800037384,None,1129.2209749221802,1129.5928649902344,1129.2209749221802,1129.5928649902344,1128.2350800037384,None,1128.2350800037384,None,1128.2350800037384,None,750,1000,1,True,330.1239013671875,-1.0,-1,1133.457034111023,None,pp_09,icub,clamp,2021_Dec_22_1023,exp,2021.2.3,59.95100211256936,
right,stop,2,0,2,0,9,3,57,5,1133.9890370368958,None,1,0.6771528720855713,1133.9890370368958,None,1134.7877750396729,None,1135.7712380886078,1136.0972940921783,1135.7712380886078,1136.0972940921783,1134.7877750396729,None,1134.7877750396729,None,1134.7877750396729,None,800,1000,1,True,354.63571548461914,-1.0,-1,1140.025787115097,None,pp_09,icub,clamp,2021_Dec_22_1023,exp,2021.2.3,59.95100211256936,
left,go,2,0,2,0,9,4,58,1,1140.557744026184,None,1,0.4043459892272949,1140.557744026184,None,1141.0470430850983,None,1142.0304701328278,1142.3865790367126,1142.0304701328278,1142.3865790367126,1141.0470430850983,None,1141.0470430850983,None,1141.0470430850983,None,-1,-1,1,True,456.91418647766113,1231.7538261413574,left,1144.6392841339111,None,pp_09,icub,clamp,2021_Dec_22_1023,exp,2021.2.3,59.95100211256936,
right,go,2,0,2,0,9,5,59,3,1145.157171010971,None,1,0.5873408317565918,1145.157171010971,None,1145.825343132019,None,1146.8570280075073,1147.2093789577484,1146.8570280075073,1147.2093789577484,1145.825343132019,None,1145.825343132019,None,1145.825343132019,None,-1,-1,1,True,281.30483627319336,1195.6911087036133,right,1149.2091300487518,None,pp_09,icub,clamp,2021_Dec_22_1023,exp,2021.2.3,59.95100211256936,
left,go,2,0,2,0,10,0,60,0,1149.72634100914,None,1,0.47942018508911133,1149.72634100914,None,1150.3294429779053,None,1151.3349089622498,1151.6838929653168,1151.3349089622498,1151.6838929653168,1150.3294429779053,None,1150.3294429779053,None,1150.3294429779053,None,-1,-1,1,True,254.683256149292,1244.8813915252686,left,1153.7267191410065,None,pp_09,icub,clamp,2021_Dec_22_1023,exp,2021.2.3,59.95100211256936,
left,stop,2,0,2,0,10,1,61,2,1154.2490811347961,None,1,0.6843888759613037,1154.2490811347961,None,1155.0403039455414,None,1156.0444331169128,1156.3781621456146,1156.0444331169128,1156.3781621456146,1155.0403039455414,None,1155.0403039455414,None,1155.0403039455414,None,800,1050,1,True,226.3786792755127,-1.0,-1,1160.165274143219,None,pp_09,icub,clamp,2021_Dec_22_1023,exp,2021.2.3,59.95100211256936,
right,go,2,0,2,0,10,2,62,4,1160.697713136673,None,1,0.5483338832855225,1160.697713136673,None,1161.373013973236,None,1162.3853261470795,1162.7355260849,1162.3853261470795,1162.7355260849,1161.373013973236,None,1161.373013973236,None,1161.373013973236,None,-1,-1,1,True,404.299259185791,1088.176965713501,right,1164.7611291408539,None,pp_09,icub,clamp,2021_Dec_22_1023,exp,2021.2.3,59.95100211256936,
left,go,2,0,2,0,10,3,63,1,1165.2717599868774,None,1,0.31285786628723145,1165.2717599868774,None,1165.69056391716,None,1166.6897361278534,1167.0451650619507,1166.6897361278534,1167.0451650619507,1165.69056391716,None,1165.69056391716,None,1165.69056391716,None,-1,-1,1,True,404.5536518096924,1177.3526668548584,left,1169.1571221351624,None,pp_09,icub,clamp,2021_Dec_22_1023,exp,2021.2.3,59.95100211256936,
right,go,2,0,2,0,10,4,64,3,1169.659213066101,None,1,0.36133694648742676,1169.659213066101,None,1170.1392080783844,None,1171.1559629440308,1171.5083601474762,1171.1559629440308,1171.5083601474762,1170.1392080783844,None,1170.1392080783844,None,1170.1392080783844,None,-1,-1,1,True,555.487871170044,1010.5533599853516,right,1173.593472957611,None,pp_09,icub,clamp,2021_Dec_22_1023,exp,2021.2.3,59.95100211256936,
left,go,2,0,2,0,10,5,65,0,1174.100037097931,None,1,0.33475494384765625,1174.100037097931,None,1174.520201921463,None,1175.5506870746613,1175.9043290615082,1175.5506870746613,1175.9043290615082,1174.520201921463,None,1174.520201921463,None,1174.520201921463,None,-1,-1,1,True,449.58996772766113,1186.673641204834,left,1178.0625350475311,None,pp_09,icub,clamp,2021_Dec_22_1023,exp,2021.2.3,59.95100211256936,
left,go,2,0,2,0,11,0,66,0,1178.5639550685883,None,1,0.2355971336364746,1178.5639550685883,None,1178.9173200130463,None,1179.9146089553833,1180.2648339271545,1179.9146089553833,1180.2648339271545,1178.9173200130463,None,1178.9173200130463,None,1178.9173200130463,None,-1,-1,1,True,426.26214027404785,1230.5324077606201,left,1182.4761550426483,None,pp_09,icub,clamp,2021_Dec_22_1023,exp,2021.2.3,59.95100211256936,
right,go,2,0,2,0,11,1,67,4,1182.9889199733734,None,1,0.37187910079956055,1182.9889199733734,None,1183.470085144043,None,1184.4856359958649,1184.826297044754,1184.4856359958649,1184.826297044754,1183.470085144043,None,1183.470085144043,None,1183.470085144043,None,-1,-1,1,True,379.25076484680176,1209.9030017852783,right,1186.946960926056,None,pp_09,icub,clamp,2021_Dec_22_1023,exp,2021.2.3,59.95100211256936,
right,stop,2,0,2,0,11,2,68,5,1187.4667401313782,None,1,0.3953518867492676,1187.4667401313782,None,1187.9477231502533,None,1188.9736859798431,1189.322135925293,1188.9736859798431,1189.322135925293,1187.9477231502533,None,1187.9477231502533,None,1187.9477231502533,None,850,1050,1,True,544.7413921356201,-1.0,-1,1193.390366077423,None,pp_09,icub,clamp,2021_Dec_22_1023,exp,2021.2.3,59.95100211256936,
right,stop,2,0,2,0,11,3,69,5,1193.9227600097656,None,1,0.6211118698120117,1193.9227600097656,None,1194.658770084381,None,1195.6327381134033,1195.9762110710144,1195.6327381134033,1195.9762110710144,1194.658770084381,None,1194.658770084381,None,1194.658770084381,None,850,1100,1,True,422.0767021179199,-1.0,-1,1199.9719710350037,None,pp_09,icub,clamp,2021_Dec_22_1023,exp,2021.2.3,59.95100211256936,
left,go,2,0,2,0,11,4,70,0,1200.502867937088,None,1,0.4239809513092041,1200.502867937088,None,1201.054701089859,None,1202.026631116867,1202.379553079605,1202.026631116867,1202.379553079605,1201.054701089859,None,1201.054701089859,None,1201.054701089859,None,-1,-1,1,True,488.54875564575195,1120.901107788086,left,1204.5633120536804,None,pp_09,icub,clamp,2021_Dec_22_1023,exp,2021.2.3,59.95100211256936,
left,go,2,0,2,0,11,5,71,0,1205.0939769744873,None,1,0.5903711318969727,1205.0939769744873,None,1205.7599489688873,None,1206.755742073059,1207.1074380874634,1206.755742073059,1207.1074380874634,1205.7599489688873,None,1205.7599489688873,None,1205.7599489688873,None,-1,-1,1,True,514.0776634216309,1278.8522243499756,left,1209.431077003479,None,pp_09,icub,clamp,2021_Dec_22_1023,exp,2021.2.3,59.95100211256936,
left,go,2,0,2,0,12,0,72,0,1209.9482550621033,None,1,0.47609710693359375,1209.9482550621033,None,1210.5523269176483,None,1211.5758500099182,1211.9311590194702,1211.5758500099182,1211.9311590194702,1210.5523269176483,None,1210.5523269176483,None,1210.5523269176483,None,-1,-1,1,True,637.1729373931885,1137.0081901550293,left,1214.2220520973206,None,pp_09,icub,clamp,2021_Dec_22_1023,exp,2021.2.3,59.95100211256936,
left,go,2,0,2,0,12,1,73,1,1214.7430441379547,None,1,0.3751959800720215,1214.7430441379547,None,1215.2243061065674,None,1216.223214149475,1216.57714509964,1216.223214149475,1216.57714509964,1215.2243061065674,None,1215.2243061065674,None,1215.2243061065674,None,-1,-1,1,True,418.68066787719727,1209.8932266235352,left,1218.7627489566803,None,pp_09,icub,clamp,2021_Dec_22_1023,exp,2021.2.3,59.95100211256936,
right,go,2,0,2,0,12,2,74,3,1219.2693860530853,None,1,0.5061850547790527,1219.2693860530853,None,1219.875597000122,None,1220.9064719676971,1221.2654299736023,1220.9064719676971,1221.2654299736023,1219.875597000122,None,1219.875597000122,None,1219.875597000122,None,-1,-1,1,True,454.831600189209,1332.2947025299072,right,1223.5427989959717,None,pp_09,icub,clamp,2021_Dec_22_1023,exp,2021.2.3,59.95100211256936,
left,stop,2,0,2,0,12,3,75,2,1224.0620610713959,None,1,0.39742612838745117,1224.0620610713959,None,1224.5448441505432,None,1225.5488760471344,1225.9026191234589,1225.5488760471344,1225.9026191234589,1224.5448441505432,None,1224.5448441505432,None,1224.5448441505432,None,850,1150,1,True,372.7381229400635,-1.0,-1,1229.8054549694061,None,pp_09,icub,clamp,2021_Dec_22_1023,exp,2021.2.3,59.95100211256936,
right,go,2,0,2,0,12,4,76,4,1230.3372149467468,None,1,0.3965299129486084,1230.3372149467468,None,1230.8264269828796,None,1231.8352041244507,1232.1820559501648,1231.8352041244507,1232.1820559501648,1230.8264269828796,None,1230.8264269828796,None,1230.8264269828796,None,-1,-1,1,True,567.8503513336182,1101.956844329834,right,1234.3615789413452,None,pp_09,icub,clamp,2021_Dec_22_1023,exp,2021.2.3,59.95100211256936,
left,stop,2,0,2,0,12,5,77,2,1234.861596107483,None,1,0.374953031539917,1234.861596107483,None,1235.3425409793854,None,1236.3412489891052,1236.699324131012,1236.3412489891052,1236.699324131012,1235.3425409793854,None,1235.3425409793854,None,1235.3425409793854,None,900,1150,1,True,370.0389862060547,-1.0,-1,1240.5964300632477,None,pp_09,icub,clamp,2021_Dec_22_1023,exp,2021.2.3,59.95100211256936,
left,stop,3,0,3,0,0,0,0,2,1250.7022910118103,None,1,12.242599964141846,1250.7022910118103,None,1263.073429107666,None,1264.080640077591,1264.421620130539,1264.080640077591,1264.421620130539,1263.073429107666,None,1263.073429107666,None,1263.073429107666,None,950,1150,0,True,626.1122226715088,1055.9263229370117,left,1266.6439640522003,None,pp_09,icub,clamp,2021_Dec_22_1023,exp,2021.2.3,59.95100211256936,
left,stop,3,0,3,0,0,1,1,2,1267.1555371284485,None,1,0.7559559345245361,1267.1555371284485,None,1268.0073001384735,None,1269.007766008377,1269.3763461112976,1269.007766008377,1269.3763461112976,1268.0073001384735,None,1268.0073001384735,None,1268.0073001384735,None,900,1150,1,True,546.6711521148682,-1.0,-1,1273.4614579677582,None,pp_09,icub,clamp,2021_Dec_22_1023,exp,2021.2.3,59.95100211256936,
right,go,3,0,3,0,0,2,2,3,1273.9576120376587,None,1,0.32300305366516113,1273.9576120376587,None,1274.3863620758057,None,1275.3927991390228,1275.7443659305573,1275.3927991390228,1275.7443659305573,1274.3863620758057,None,1274.3863620758057,None,1274.3863620758057,None,-1,-1,1,True,323.0931758880615,1184.260368347168,right,1277.778305053711,None,pp_09,icub,clamp,2021_Dec_22_1023,exp,2021.2.3,59.95100211256936,
left,go,3,0,3,0,0,3,3,1,1278.3148310184479,None,1,0.6051151752471924,1278.3148310184479,None,1279.0445499420166,None,1280.0510840415955,1280.4065580368042,1280.0510840415955,1280.4065580368042,1279.0445499420166,None,1279.0445499420166,None,1279.0445499420166,None,-1,-1,1,True,393.94259452819824,1162.8692150115967,left,1282.488233089447,None,pp_09,icub,clamp,2021_Dec_22_1023,exp,2021.2.3,59.95100211256936,
left,stop,3,0,3,0,0,4,4,2,1283.0077300071716,None,1,0.570328950881958,1283.0077300071716,None,1283.6587481498718,None,1284.6526141166687,1284.998636007309,1284.6526141166687,1284.998636007309,1283.6587481498718,None,1283.6587481498718,None,1283.6587481498718,None,950,1150,0,True,355.67760467529297,924.0663051605225,left,1286.8487391471863,None,pp_09,icub,clamp,2021_Dec_22_1023,exp,2021.2.3,59.95100211256936,
right,go,3,0,3,0,0,5,5,4,1287.3697681427002,None,1,0.4951469898223877,1287.3697681427002,None,1287.9745681285858,None,1289.0104320049286,1289.3579630851746,1289.0104320049286,1289.3579630851746,1287.9745681285858,None,1287.9745681285858,None,1287.9745681285858,None,-1,-1,1,True,440.0954246520996,1281.7978858947754,right,1291.6112940311432,None,pp_09,icub,clamp,2021_Dec_22_1023,exp,2021.2.3,59.95100211256936,
left,stop,3,0,3,0,1,0,6,2,1292.1329350471497,None,1,0.3761320114135742,1292.1329350471497,None,1292.6134510040283,None,1293.6344709396362,1293.9776949882507,1293.6344709396362,1293.9776949882507,1292.6134510040283,None,1292.6134510040283,None,1292.6134510040283,None,900,1150,1,True,534.024715423584,-1.0,-1,1298.0194420814514,None,pp_09,icub,clamp,2021_Dec_22_1023,exp,2021.2.3,59.95100211256936,
right,go,3,0,3,0,1,1,7,3,1298.5532989501953,None,1,1.8702569007873535,1298.5532989501953,None,1300.5347559452057,None,1301.513916015625,1301.8797409534454,1301.513916015625,1301.8797409534454,1300.5347559452057,None,1300.5347559452057,None,1300.5347559452057,None,-1,-1,1,True,594.0353870391846,1344.3613052368164,right,1304.3424670696259,None,pp_09,icub,clamp,2021_Dec_22_1023,exp,2021.2.3,59.95100211256936,
left,stop,3,0,3,0,1,2,8,2,1304.8623230457306,None,1,0.7646379470825195,1304.8623230457306,None,1305.7175710201263,None,1306.7351479530334,1307.095873117447,1306.7351479530334,1307.095873117447,1305.7175710201263,None,1305.7175710201263,None,1305.7175710201263,None,950,1150,0,True,563.9758110046387,1008.5864067077637,left,1309.1631259918213,None,pp_09,icub,clamp,2021_Dec_22_1023,exp,2021.2.3,59.95100211256936,
left,go,3,0,3,0,1,3,9,1,1309.6686069965363,None,1,0.5113818645477295,1309.6686069965363,None,1310.2758240699768,None,1311.2760350704193,1311.6430411338806,1311.2760350704193,1311.6430411338806,1310.2758240699768,None,1310.2758240699768,None,1310.2758240699768,None,-1,-1,1,True,679.8086166381836,1289.7207736968994,left,1314.1345701217651,None,pp_09,icub,clamp,2021_Dec_22_1023,exp,2021.2.3,59.95100211256936,
left,go,3,0,3,0,1,4,10,0,1314.6368789672852,None,1,0.4920952320098877,1314.6368789672852,None,1315.239254951477,None,1316.2679190635681,1316.5891201496124,1316.2679190635681,1316.5891201496124,1315.239254951477,None,1315.239254951477,None,1315.239254951477,None,-1,-1,1,True,635.308027267456,1175.158977508545,left,1318.957006931305,None,pp_09,icub,clamp,2021_Dec_22_1023,exp,2021.2.3,59.95100211256936,
right,go,3,0,3,0,1,5,11,3,1319.4704990386963,None,1,0.5773160457611084,1319.4704990386963,None,1320.1340379714966,None,1321.1383481025696,1321.4704051017761,1321.1383481025696,1321.4704051017761,1320.1340379714966,None,1320.1340379714966,None,1320.1340379714966,None,-1,-1,1,True,491.6727542877197,1193.4261322021484,right,1323.7250111103058,None,pp_09,icub,clamp,2021_Dec_22_1023,exp,2021.2.3,59.95100211256936,
left,stop,3,0,3,0,2,0,12,2,1324.2336559295654,None,1,0.46256494522094727,1324.2336559295654,None,1324.7767860889435,None,1325.809487104416,1326.1588339805603,1325.809487104416,1326.1588339805603,1324.7767860889435,None,1324.7767860889435,None,1324.7767860889435,None,900,1150,1,True,383.23068618774414,-1.0,-1,1330.0337030887604,None,pp_09,icub,clamp,2021_Dec_22_1023,exp,2021.2.3,59.95100211256936,
