Holder,Action,blocks.thisRepN,blocks.thisTrialN,blocks.thisN,blocks.thisIndex,trials.thisRepN,trials.thisTrialN,trials.thisN,trials.thisIndex,start_msg.started,start_msg.stopped,RespButton_start_trial.keys,RespButton_start_trial.rt,RespButton_start_trial.started,RespButton_start_trial.stopped,GREEN.started,GREEN.stopped,LEFT_RED.started,LEFT_RED.stopped,RIGHT_RED.started,RIGHT_RED.stopped,LEFT_CIRCLE.started,LEFT_CIRCLE.stopped,CENTER_CIRCLE.started,CENTER_CIRCLE.stopped,RIGHT_CIRCLE.started,RIGHT_CIRCLE.stopped,SOUND_DELAY_MS_LEFT,SOUND_DELAY_MS_RIGHT,CORRECT,VALIDITY,RELEASE_TIME,TOUCH_TIME,BOTTLE_RESPONSE_POSITION,text.started,text.stopped,pid,left_position,right_position,date,expName,psychopyVersion,frameRate,
right,go,0,0,0,0,0,0,0,3,67.70664405822754,None,1,3.052780866622925,67.70664405822754,None,70.83998107910156,None,71.84393811225891,72.19559717178345,71.84393811225891,72.19559717178345,70.83998107910156,None,70.83998107910156,None,70.83998107910156,None,-1,-1,1,True,477.48517990112305,782.4816703796387,right,73.97536206245422,None,pp_05,icub,clamp,2021_Dec_21_1422,exp,2021.2.3,60.025817531305904,
right,go,0,0,0,0,0,1,1,4,74.48508214950562,None,1,0.6803500652313232,74.48508214950562,None,75.27284097671509,None,76.30174016952515,76.65550303459167,76.30174016952515,76.65550303459167,75.27284097671509,None,75.27284097671509,None,75.27284097671509,None,-1,-1,1,True,344.82622146606445,561.0456466674805,right,78.09107708930969,None,pp_05,icub,clamp,2021_Dec_21_1422,exp,2021.2.3,60.025817531305904,
left,stop,0,0,0,0,0,2,2,2,78.5934841632843,None,1,0.6221380233764648,78.5934841632843,None,79.32248616218567,None,80.35471606254578,80.7073061466217,80.35471606254578,80.7073061466217,79.32248616218567,None,79.32248616218567,None,79.32248616218567,None,500,500,0,True,333.48798751831055,544.1937446594238,left,82.11820697784424,None,pp_05,icub,clamp,2021_Dec_21_1422,exp,2021.2.3,60.025817531305904,
right,go,0,0,0,0,0,3,3,3,82.61231398582458,None,1,0.19287991523742676,82.61231398582458,None,82.90651798248291,None,83.9247419834137,84.29339003562927,83.9247419834137,84.29339003562927,82.90651798248291,None,82.90651798248291,None,82.90651798248291,None,-1,-1,1,True,309.44371223449707,512.7854347229004,right,85.59903812408447,None,pp_05,icub,clamp,2021_Dec_21_1422,exp,2021.2.3,60.025817531305904,
left,stop,0,0,0,0,0,4,4,2,86.11633014678955,None,1,0.42420101165771484,86.11633014678955,None,86.65670800209045,None,87.68785905838013,88.04327416419983,87.68785905838013,88.04327416419983,86.65670800209045,None,86.65670800209045,None,86.65670800209045,None,,,0,False,-1.0,-1.0,-1,88.51422715187073,None,pp_05,icub,clamp,2021_Dec_21_1422,exp,2021.2.3,60.025817531305904,
right,go,0,0,0,0,0,5,5,4,89.00228810310364,None,1,0.8771028518676758,89.00228810310364,None,89.97047305107117,None,90.99416303634644,91.34012508392334,90.99416303634644,91.34012508392334,89.97047305107117,None,89.97047305107117,None,89.97047305107117,None,-1,-1,1,True,365.1885986328125,525.8111953735352,right,92.76300811767578,None,pp_05,icub,clamp,2021_Dec_21_1422,exp,2021.2.3,60.025817531305904,
right,go,0,0,0,0,1,0,6,3,93.28302097320557,None,1,0.46610498428344727,93.28302097320557,None,93.8245530128479,None,94.84825801849365,95.20787215232849,94.84825801849365,95.20787215232849,93.8245530128479,None,93.8245530128479,None,93.8245530128479,None,-1,-1,1,True,332.8366279602051,626.6117095947266,right,96.69163298606873,None,pp_05,icub,clamp,2021_Dec_21_1422,exp,2021.2.3,60.025817531305904,
left,stop,0,0,0,0,1,1,7,2,97.1981589794159,None,1,0.368297815322876,97.1981589794159,None,97.6819519996643,None,98.6920440196991,99.05794715881348,98.6920440196991,99.05794715881348,97.6819519996643,None,97.6819519996643,None,97.6819519996643,None,450,500,0,True,300.7826805114746,474.135160446167,left,100.37013816833496,None,pp_05,icub,clamp,2021_Dec_21_1422,exp,2021.2.3,60.025817531305904,
right,stop,0,0,0,0,1,2,8,5,100.88932299613953,None,1,0.17578506469726562,100.88932299613953,None,101.18460512161255,None,102.18607997894287,102.54392910003662,102.18607997894287,102.54392910003662,101.18460512161255,None,101.18460512161255,None,101.18460512161255,None,400,500,0,True,22.837400436401367,701.8125057220459,right,103.79285001754761,None,pp_05,icub,clamp,2021_Dec_21_1422,exp,2021.2.3,60.025817531305904,
left,stop,0,0,0,0,1,3,9,2,104.32717299461365,None,1,0.6205158233642578,104.32717299461365,None,105.03331303596497,None,106.06018805503845,106.40163612365723,106.06018805503845,106.40163612365723,105.03331303596497,None,105.03331303596497,None,105.03331303596497,None,400,450,0,True,469.0511226654053,563.7786388397217,left,107.94764304161072,None,pp_05,icub,clamp,2021_Dec_21_1422,exp,2021.2.3,60.025817531305904,
left,stop,0,0,0,0,1,4,10,2,108.46715807914734,None,1,0.035826921463012695,108.46715807914734,None,108.57289505004883,None,109.58751201629639,109.94336199760437,109.58751201629639,109.94336199760437,108.57289505004883,None,108.57289505004883,None,108.57289505004883,None,350,450,1,True,381.81281089782715,-1.0,-1,113.8649389743805,None,pp_05,icub,clamp,2021_Dec_21_1422,exp,2021.2.3,60.025817531305904,
right,stop,0,0,0,0,1,5,11,5,114.36184811592102,None,1,1.5170519351959229,114.36184811592102,None,115.97307300567627,None,116.97879910469055,117.33931398391724,116.97879910469055,117.33931398391724,115.97307300567627,None,115.97307300567627,None,115.97307300567627,None,400,450,0,True,312.62755393981934,514.458417892456,right,118.70185399055481,None,pp_05,icub,clamp,2021_Dec_21_1422,exp,2021.2.3,60.025817531305904,
right,go,0,0,0,0,2,0,12,4,119.1963529586792,None,1,0.18467211723327637,119.1963529586792,None,119.49155497550964,None,120.50275206565857,120.82733416557312,120.50275206565857,120.82733416557312,119.49155497550964,None,119.49155497550964,None,119.49155497550964,None,-1,-1,1,True,458.38165283203125,480.07702827453613,right,122.32287216186523,None,pp_05,icub,clamp,2021_Dec_21_1422,exp,2021.2.3,60.025817531305904,
left,go,0,0,0,0,2,1,13,1,122.84629106521606,None,1,0.46499180793762207,122.84629106521606,None,123.39154410362244,None,124.42402815818787,124.77761697769165,124.42402815818787,124.77761697769165,123.39154410362244,None,123.39154410362244,None,123.39154410362244,None,-1,-1,1,True,358.6702346801758,566.9827461242676,left,126.18750095367432,None,pp_05,icub,clamp,2021_Dec_21_1422,exp,2021.2.3,60.025817531305904,
right,stop,0,0,0,0,2,2,14,5,126.69812107086182,None,1,0.3283529281616211,126.69812107086182,None,127.1172821521759,None,128.1202211380005,128.46917915344238,128.1202211380005,128.46917915344238,127.1172821521759,None,127.1172821521759,None,127.1172821521759,None,400,400,0,True,393.5370445251465,478.2423973083496,right,129.87655997276306,None,pp_05,icub,clamp,2021_Dec_21_1422,exp,2021.2.3,60.025817531305904,
left,stop,0,0,0,0,2,3,15,2,130.3867690563202,None,1,0.10237693786621094,130.3867690563202,None,130.6173141002655,None,131.6382269859314,131.98589611053467,131.6382269859314,131.98589611053467,130.6173141002655,None,130.6173141002655,None,130.6173141002655,None,400,350,0,True,383.3639621734619,457.49664306640625,left,133.35772395133972,None,pp_05,icub,clamp,2021_Dec_21_1422,exp,2021.2.3,60.025817531305904,
left,go,0,0,0,0,2,4,16,0,133.86493396759033,None,1,0.04216289520263672,133.86493396759033,None,134.03482103347778,None,135.04978895187378,135.40533995628357,135.04978895187378,135.40533995628357,134.03482103347778,None,134.03482103347778,None,134.03482103347778,None,-1,-1,1,True,397.74060249328613,479.9518585205078,left,136.81985712051392,None,pp_05,icub,clamp,2021_Dec_21_1422,exp,2021.2.3,60.025817531305904,
left,go,0,0,0,0,2,5,17,0,137.32315111160278,None,1,0.2898440361022949,137.32315111160278,None,137.74095702171326,None,138.76339507102966,139.10886096954346,138.76339507102966,139.10886096954346,137.74095702171326,None,137.74095702171326,None,137.74095702171326,None,-1,-1,1,True,377.72059440612793,578.6080360412598,left,140.5861301422119,None,pp_05,icub,clamp,2021_Dec_21_1422,exp,2021.2.3,60.025817531305904,
left,stop,0,0,0,0,3,0,18,2,141.09956312179565,None,1,0.22556209564208984,141.09956312179565,None,141.4535050392151,None,142.4644410610199,142.8173999786377,142.4644410610199,142.8173999786377,141.4535050392151,None,141.4535050392151,None,141.4535050392151,None,350,350,0,True,362.0476722717285,531.3701629638672,left,144.2277331352234,None,pp_05,icub,clamp,2021_Dec_21_1422,exp,2021.2.3,60.025817531305904,
right,go,0,0,0,0,3,1,19,4,144.74184203147888,None,1,1.7838599681854248,144.74184203147888,None,146.6506791114807,None,147.6260850429535,147.96784114837646,147.6260850429535,147.96784114837646,146.6506791114807,None,146.6506791114807,None,146.6506791114807,None,-1,-1,1,True,314.7604465484619,470.508337020874,right,149.3058581352234,None,pp_05,icub,clamp,2021_Dec_21_1422,exp,2021.2.3,60.025817531305904,
right,go,0,0,0,0,3,2,20,3,149.82417702674866,None,1,0.3198699951171875,149.82417702674866,None,150.2456340789795,None,151.24854803085327,151.60684514045715,151.24854803085327,151.60684514045715,150.2456340789795,None,150.2456340789795,None,150.2456340789795,None,-1,-1,1,True,386.6455554962158,570.4076290130615,right,153.09522700309753,None,pp_05,icub,clamp,2021_Dec_21_1422,exp,2021.2.3,60.025817531305904,
left,go,0,0,0,0,3,3,21,1,153.6018750667572,None,1,0.19938111305236816,153.6018750667572,None,153.90175199508667,None,154.9247579574585,155.29458498954773,154.9247579574585,155.29458498954773,153.90175199508667,None,153.90175199508667,None,153.90175199508667,None,-1,-1,1,True,346.1873531341553,502.856969833374,left,156.63369011878967,None,pp_05,icub,clamp,2021_Dec_21_1422,exp,2021.2.3,60.025817531305904,
right,stop,0,0,0,0,3,4,22,5,157.14808011054993,None,1,0.14877605438232422,157.14808011054993,None,157.38250708580017,None,158.38428115844727,158.742112159729,158.38428115844727,158.742112159729,157.38250708580017,None,157.38250708580017,None,157.38250708580017,None,300,350,0,True,328.3417224884033,456.4964771270752,right,160.0546841621399,None,pp_05,icub,clamp,2021_Dec_21_1422,exp,2021.2.3,60.025817531305904,
right,go,0,0,0,0,3,5,23,3,160.566468000412,None,1,1.1702239513397217,160.566468000412,None,161.83775806427002,None,162.81828808784485,163.18488717079163,162.81828808784485,163.18488717079163,161.83775806427002,None,161.83775806427002,None,161.83775806427002,None,-1,-1,1,True,330.4443359375,425.13132095336914,right,164.4725170135498,None,pp_05,icub,clamp,2021_Dec_21_1422,exp,2021.2.3,60.025817531305904,
left,go,0,0,0,0,4,0,24,0,164.98283505439758,None,1,0.08913898468017578,164.98283505439758,None,165.15759110450745,None,166.16637516021729,166.52423810958862,166.16637516021729,166.52423810958862,165.15759110450745,None,165.15759110450745,None,165.15759110450745,None,-1,-1,1,True,409.5113277435303,427.83379554748535,left,167.86112594604492,None,pp_05,icub,clamp,2021_Dec_21_1422,exp,2021.2.3,60.025817531305904,
right,go,0,0,0,0,4,1,25,4,168.3775601387024,None,1,0.09450793266296387,168.3775601387024,None,168.55270099639893,None,169.56275701522827,169.9207570552826,169.56275701522827,169.9207570552826,168.55270099639893,None,168.55270099639893,None,168.55270099639893,None,-1,-1,1,True,339.5669460296631,384.86385345458984,right,171.17634916305542,None,pp_05,icub,clamp,2021_Dec_21_1422,exp,2021.2.3,60.025817531305904,
right,stop,0,0,0,0,4,2,26,5,171.6857271194458,None,1,0.20358514785766602,171.6857271194458,None,171.97950911521912,None,172.9749240875244,173.33192706108093,172.9749240875244,173.33192706108093,171.97950911521912,None,171.97950911521912,None,171.97950911521912,None,300,300,0,True,304.72493171691895,409.06667709350586,right,174.5803530216217,None,pp_05,icub,clamp,2021_Dec_21_1422,exp,2021.2.3,60.025817531305904,
left,go,0,0,0,0,4,3,27,0,175.1015110015869,None,1,2.286024808883667,175.1015110015869,None,177.5257179737091,None,178.50775003433228,178.860778093338,178.50775003433228,178.860778093338,177.5257179737091,None,177.5257179737091,None,177.5257179737091,None,-1,-1,1,True,363.6775016784668,469.78139877319336,left,180.22884702682495,None,pp_05,icub,clamp,2021_Dec_21_1422,exp,2021.2.3,60.025817531305904,
right,go,0,0,0,0,4,4,28,4,180.74918913841248,None,1,0.1797199249267578,180.74918913841248,None,181.04295706748962,None,182.07472205162048,182.43016695976257,182.07472205162048,182.43016695976257,181.04295706748962,None,181.04295706748962,None,181.04295706748962,None,-1,-1,1,True,340.6038284301758,472.9652404785156,right,183.73388195037842,None,pp_05,icub,clamp,2021_Dec_21_1422,exp,2021.2.3,60.025817531305904,
left,go,0,0,0,0,4,5,29,1,184.25045704841614,None,1,0.20619678497314453,184.25045704841614,None,184.5896351337433,None,185.5913369655609,185.94166016578674,185.5913369655609,185.94166016578674,184.5896351337433,None,184.5896351337433,None,184.5896351337433,None,-1,-1,1,True,724.7672080993652,448.12774658203125,left,187.64514112472534,None,pp_05,icub,clamp,2021_Dec_21_1422,exp,2021.2.3,60.025817531305904,
left,stop,0,0,0,0,5,0,30,2,188.1500279903412,None,1,0.06073904037475586,188.1500279903412,None,188.3200261592865,None,189.31046509742737,189.66918110847473,189.31046509742737,189.66918110847473,188.3200261592865,None,188.3200261592865,None,188.3200261592865,None,300,250,0,True,420.2122688293457,410.4187488555908,left,191.0362491607666,None,pp_05,icub,clamp,2021_Dec_21_1422,exp,2021.2.3,60.025817531305904,
left,go,0,0,0,0,5,1,31,1,191.55942511558533,None,1,0.06334805488586426,191.55942511558533,None,191.72967195510864,None,192.72660112380981,193.07667899131775,192.72660112380981,193.07667899131775,191.72967195510864,None,191.72967195510864,None,191.72967195510864,None,-1,-1,1,True,360.034704208374,362.59937286376953,left,194.3299241065979,None,pp_05,icub,clamp,2021_Dec_21_1422,exp,2021.2.3,60.025817531305904,
right,stop,0,0,0,0,5,2,32,5,194.84744310379028,None,1,0.08761286735534668,194.84744310379028,None,195.0131549835205,None,196.01188397407532,196.36599898338318,196.01188397407532,196.36599898338318,195.0131549835205,None,195.0131549835205,None,195.0131549835205,None,250,250,0,True,438.23885917663574,353.0750274658203,right,197.6936001777649,None,pp_05,icub,clamp,2021_Dec_21_1422,exp,2021.2.3,60.025817531305904,
right,stop,0,0,0,0,5,3,33,5,198.22017407417297,None,1,1.2732479572296143,198.22017407417297,None,199.57928013801575,None,200.55008506774902,200.91535902023315,200.55008506774902,200.91535902023315,199.57928013801575,None,199.57928013801575,None,199.57928013801575,None,250,200,0,True,304.5177459716797,373.20590019226074,right,202.12491703033447,None,pp_05,icub,clamp,2021_Dec_21_1422,exp,2021.2.3,60.025817531305904,
right,stop,0,0,0,0,5,4,34,5,202.6240839958191,None,1,1.1523709297180176,202.6240839958191,None,203.90843605995178,None,204.89266896247864,205.25170612335205,204.89266896247864,205.25170612335205,203.90843605995178,None,203.90843605995178,None,203.90843605995178,None,250,150,1,True,288.96522521972656,-1.0,-1,209.08335399627686,None,pp_05,icub,clamp,2021_Dec_21_1422,exp,2021.2.3,60.025817531305904,
left,go,0,0,0,0,5,5,35,1,209.5793969631195,None,1,1.8920278549194336,209.5793969631195,None,211.56259417533875,None,212.56580710411072,212.89065313339233,212.56580710411072,212.89065313339233,211.56259417533875,None,211.56259417533875,None,211.56259417533875,None,-1,-1,1,True,316.6232109069824,419.4321632385254,left,214.19678902626038,None,pp_05,icub,clamp,2021_Dec_21_1422,exp,2021.2.3,60.025817531305904,
left,go,0,0,0,0,6,0,36,0,214.6968891620636,None,1,0.12994694709777832,214.6968891620636,None,214.9301950931549,None,215.92817902565002,216.28420114517212,215.92817902565002,216.28420114517212,214.9301950931549,None,214.9301950931549,None,214.9301950931549,None,-1,-1,1,True,384.71341133117676,418.8363552093506,left,217.61169600486755,None,pp_05,icub,clamp,2021_Dec_21_1422,exp,2021.2.3,60.025817531305904,
left,go,0,0,0,0,6,1,37,1,218.12500405311584,None,1,0.0572969913482666,218.12500405311584,None,218.2953851222992,None,219.30951595306396,219.64078903198242,219.30951595306396,219.64078903198242,218.2953851222992,None,218.2953851222992,None,218.2953851222992,None,-1,-1,1,True,314.29505348205566,389.44149017333984,left,220.87648606300354,None,pp_05,icub,clamp,2021_Dec_21_1422,exp,2021.2.3,60.025817531305904,
left,go,0,0,0,0,6,2,38,1,221.38370013237,None,1,0.15047407150268555,221.38370013237,None,221.61958503723145,None,222.62598299980164,222.96829414367676,222.62598299980164,222.96829414367676,221.61958503723145,None,221.61958503723145,None,221.61958503723145,None,-1,-1,1,True,294.9812412261963,381.03771209716797,left,224.17022609710693,None,pp_05,icub,clamp,2021_Dec_21_1422,exp,2021.2.3,60.025817531305904,
left,go,0,0,0,0,6,3,39,0,224.7080750465393,None,1,0.08087921142578125,224.7080750465393,None,224.87886810302734,None,225.87001705169678,226.23229098320007,225.87001705169678,226.23229098320007,224.87886810302734,None,224.87886810302734,None,224.87886810302734,None,-1,-1,1,True,325.0305652618408,458.1470489501953,left,227.54000616073608,None,pp_05,icub,clamp,2021_Dec_21_1422,exp,2021.2.3,60.025817531305904,
left,stop,0,0,0,0,6,4,40,2,228.0560600757599,None,1,0.06684398651123047,228.0560600757599,None,228.2293770313263,None,229.22949409484863,229.57732701301575,229.22949409484863,229.57732701301575,228.2293770313263,None,228.2293770313263,None,228.2293770313263,None,250,200,0,True,324.2013454437256,427.4640083312988,left,230.89618396759033,None,pp_05,icub,clamp,2021_Dec_21_1422,exp,2021.2.3,60.025817531305904,
left,go,0,0,0,0,6,5,41,0,231.41462516784668,None,1,1.375802993774414,231.41462516784668,None,232.87717700004578,None,233.85785794258118,234.199401140213,233.85785794258118,234.199401140213,232.87717700004578,None,232.87717700004578,None,232.87717700004578,None,-1,-1,1,True,312.1328353881836,367.8252696990967,left,235.44451117515564,None,pp_05,icub,clamp,2021_Dec_21_1422,exp,2021.2.3,60.025817531305904,
right,go,0,0,0,0,7,0,42,3,235.9610800743103,None,1,0.2476811408996582,235.9610800743103,None,236.31532216072083,None,237.33391904830933,237.70118403434753,237.33391904830933,237.70118403434753,236.31532216072083,None,236.31532216072083,None,236.31532216072083,None,-1,-1,1,True,393.0833339691162,359.16852951049805,right,238.94139695167542,None,pp_05,icub,clamp,2021_Dec_21_1422,exp,2021.2.3,60.025817531305904,
left,go,0,0,0,0,7,1,43,0,239.45444917678833,None,1,0.13368988037109375,239.45444917678833,None,239.68907594680786,None,240.6991481781006,241.0669550895691,240.6991481781006,241.0669550895691,239.68907594680786,None,239.68907594680786,None,239.68907594680786,None,-1,-1,1,True,297.44529724121094,366.0013675689697,left,242.25811004638672,None,pp_05,icub,clamp,2021_Dec_21_1422,exp,2021.2.3,60.025817531305904,
right,go,0,0,0,0,7,2,44,4,242.76769995689392,None,1,0.1261429786682129,242.76769995689392,None,242.99967694282532,None,244.0142240524292,244.36613512039185,244.0142240524292,244.36613512039185,242.99967694282532,None,242.99967694282532,None,242.99967694282532,None,-1,-1,1,True,297.147274017334,334.1364860534668,right,245.51652598381042,None,pp_05,icub,clamp,2021_Dec_21_1422,exp,2021.2.3,60.025817531305904,
right,go,0,0,0,0,7,3,45,3,246.01953601837158,None,1,0.17316508293151855,246.01953601837158,None,246.3126039505005,None,247.3092520236969,247.65001606941223,247.3092520236969,247.65001606941223,246.3126039505005,None,246.3126039505005,None,246.3126039505005,None,-1,-1,1,True,281.5525531768799,385.56408882141113,right,248.88017916679382,None,pp_05,icub,clamp,2021_Dec_21_1422,exp,2021.2.3,60.025817531305904,
right,stop,0,0,0,0,7,4,46,5,249.38901615142822,None,1,0.0789339542388916,249.38901615142822,None,249.5636920928955,None,250.5575611591339,250.90087509155273,250.5575611591339,250.90087509155273,249.5636920928955,None,249.5636920928955,None,249.5636920928955,None,200,200,0,True,275.0077247619629,413.9406681060791,right,252.13270497322083,None,pp_05,icub,clamp,2021_Dec_21_1422,exp,2021.2.3,60.025817531305904,
right,go,0,0,0,0,7,5,47,4,252.62974500656128,None,1,0.16002297401428223,252.62974500656128,None,252.86540699005127,None,253.89385199546814,254.22225904464722,253.89385199546814,254.22225904464722,252.86540699005127,None,252.86540699005127,None,252.86540699005127,None,-1,-1,1,True,250.5488395690918,361.4952564239502,right,255.36741495132446,None,pp_05,icub,clamp,2021_Dec_21_1422,exp,2021.2.3,60.025817531305904,
left,go,0,0,0,0,8,0,48,0,255.86368799209595,None,1,0.1280231475830078,255.86368799209595,None,256.0988931655884,None,257.1318781375885,257.49062299728394,257.1318781375885,257.49062299728394,256.0988931655884,None,256.0988931655884,None,256.0988931655884,None,-1,-1,1,True,382.0652961730957,409.8095893859863,left,258.7674009799957,None,pp_05,icub,clamp,2021_Dec_21_1422,exp,2021.2.3,60.025817531305904,
left,go,0,0,0,0,8,1,49,0,259.275190114975,None,1,0.06058001518249512,259.275190114975,None,259.44744300842285,None,260.44219303131104,260.7955241203308,260.44219303131104,260.7955241203308,259.44744300842285,None,259.44744300842285,None,259.44744300842285,None,-1,-1,1,True,351.00650787353516,390.87390899658203,left,262.08359694480896,None,pp_05,icub,clamp,2021_Dec_21_1422,exp,2021.2.3,60.025817531305904,
right,go,0,0,0,0,8,2,50,3,262.6039230823517,None,1,0.028940916061401367,262.6039230823517,None,262.71311616897583,None,263.7086820602417,264.06660509109497,263.7086820602417,264.06660509109497,262.71311616897583,None,262.71311616897583,None,262.71311616897583,None,-1,-1,1,True,299.3144989013672,347.5461006164551,right,265.23171496391296,None,pp_05,icub,clamp,2021_Dec_21_1422,exp,2021.2.3,60.025817531305904,
left,go,0,0,0,0,8,3,51,1,265.7479729652405,None,1,0.04067802429199219,265.7479729652405,None,265.916522026062,None,266.9455101490021,267.3064889907837,266.9455101490021,267.3064889907837,265.916522026062,None,265.916522026062,None,265.916522026062,None,-1,-1,1,True,284.5771312713623,385.8966827392578,left,268.46639108657837,None,pp_05,icub,clamp,2021_Dec_21_1422,exp,2021.2.3,60.025817531305904,
left,go,0,0,0,0,8,4,52,1,268.98283195495605,None,1,0.051995038986206055,268.98283195495605,None,269.15462708473206,None,270.1849420070648,270.553120136261,270.1849420070648,270.553120136261,269.15462708473206,None,269.15462708473206,None,269.15462708473206,None,-1,-1,1,True,394.9015140533447,399.12915229797363,left,271.83022594451904,None,pp_05,icub,clamp,2021_Dec_21_1422,exp,2021.2.3,60.025817531305904,
left,go,0,0,0,0,8,5,53,0,272.33465600013733,None,1,0.2500450611114502,272.33465600013733,None,272.6914780139923,None,273.6972210407257,274.0502769947052,273.6972210407257,274.0502769947052,272.6914780139923,None,272.6914780139923,None,272.6914780139923,None,-1,-1,1,True,284.9457263946533,404.2356014251709,left,275.2700309753418,None,pp_05,icub,clamp,2021_Dec_21_1422,exp,2021.2.3,60.025817531305904,
left,go,0,0,0,0,9,0,54,0,275.7862820625305,None,1,0.08579111099243164,275.7862820625305,None,275.9579191207886,None,276.9622941017151,277.3099830150604,276.9622941017151,277.3099830150604,275.9579191207886,None,275.9579191207886,None,275.9579191207886,None,-1,-1,1,True,677.8063774108887,330.54614067077637,left,278.8367249965668,None,pp_05,icub,clamp,2021_Dec_21_1422,exp,2021.2.3,60.025817531305904,
left,go,0,0,0,0,9,1,55,0,279.3534641265869,None,1,0.1313619613647461,279.3534641265869,None,279.5859169960022,None,280.594190120697,280.9419240951538,280.594190120697,280.9419240951538,279.5859169960022,None,279.5859169960022,None,279.5859169960022,None,-1,-1,0,False,263.35930824279785,348.16527366638184,right,282.0895941257477,None,pp_05,icub,clamp,2021_Dec_21_1422,exp,2021.2.3,60.025817531305904,
left,stop,0,0,0,0,9,2,56,2,282.59837102890015,None,1,3.1951358318328857,282.59837102890015,None,285.9219000339508,None,None,None,None,None,285.9219000339508,None,285.9219000339508,None,285.9219000339508,None,,,0,False,-1.0,-1.0,-1,286.2676510810852,None,pp_05,icub,clamp,2021_Dec_21_1422,exp,2021.2.3,60.025817531305904,
left,go,0,0,0,0,9,3,57,1,286.7993381023407,None,1,32.787830114364624,286.7993381023407,None,319.701877117157,None,320.70896315574646,321.0525629520416,320.70896315574646,321.0525629520416,319.701877117157,None,319.701877117157,None,319.701877117157,None,-1,-1,1,True,313.09962272644043,722.6142883300781,left,322.6241240501404,None,pp_05,icub,clamp,2021_Dec_21_1422,exp,2021.2.3,60.025817531305904,
left,go,0,0,0,0,9,4,58,1,323.1355199813843,None,1,0.5373668670654297,323.1355199813843,None,323.8014290332794,None,324.8400399684906,325.20106196403503,324.8400399684906,325.20106196403503,323.8014290332794,None,323.8014290332794,None,323.8014290332794,None,-1,-1,1,True,330.86228370666504,589.1468524932861,left,326.6122419834137,None,pp_05,icub,clamp,2021_Dec_21_1422,exp,2021.2.3,60.025817531305904,
right,stop,0,0,0,0,9,5,59,5,327.11971616744995,None,1,0.5397729873657227,327.11971616744995,None,327.7827470302582,None,328.81689500808716,329.1756680011749,328.81689500808716,329.1756680011749,327.7827470302582,None,327.7827470302582,None,327.7827470302582,None,200,150,1,True,525.9058475494385,-1.0,-1,333.1869671344757,None,pp_05,icub,clamp,2021_Dec_21_1422,exp,2021.2.3,60.025817531305904,
right,stop,0,0,0,0,10,0,60,5,333.72070717811584,None,1,1.1395070552825928,333.72070717811584,None,334.96120595932007,None,335.94075298309326,336.2994179725647,335.94075298309326,336.2994179725647,334.96120595932007,None,334.96120595932007,None,334.96120595932007,None,200,200,1,True,299.7407913208008,-1.0,-1,340.1284770965576,None,pp_05,icub,clamp,2021_Dec_21_1422,exp,2021.2.3,60.025817531305904,
right,go,0,0,0,0,10,1,61,3,340.66237616539,None,1,1.2587618827819824,340.66237616539,None,342.0227999687195,None,342.99962401390076,343.36208510398865,342.99962401390076,343.36208510398865,342.0227999687195,None,342.0227999687195,None,342.0227999687195,None,-1,-1,1,True,254.7292709350586,453.28283309936523,right,344.60156202316284,None,pp_05,icub,clamp,2021_Dec_21_1422,exp,2021.2.3,60.025817531305904,
right,go,0,0,0,0,10,2,62,4,345.1087830066681,None,1,0.23682117462158203,345.1087830066681,None,345.46341013908386,None,346.47461104393005,346.82051610946655,346.47461104393005,346.82051610946655,345.46341013908386,None,345.46341013908386,None,345.46341013908386,None,-1,-1,1,True,289.5181179046631,538.4821891784668,right,348.1920340061188,None,pp_05,icub,clamp,2021_Dec_21_1422,exp,2021.2.3,60.025817531305904,
right,go,0,0,0,0,10,3,63,3,348.6968801021576,None,1,0.5246191024780273,348.6968801021576,None,349.3020820617676,None,350.2999429702759,350.65907406806946,350.2999429702759,350.65907406806946,349.3020820617676,None,349.3020820617676,None,349.3020820617676,None,-1,-1,1,True,389.7213935852051,443.38083267211914,right,352.01685214042664,None,pp_05,icub,clamp,2021_Dec_21_1422,exp,2021.2.3,60.025817531305904,
left,go,0,0,0,0,10,4,64,1,352.52451610565186,None,1,0.3840749263763428,352.52451610565186,None,353.0033919811249,None,354.0122981071472,354.3592760562897,354.0122981071472,354.3592760562897,353.0033919811249,None,353.0033919811249,None,353.0033919811249,None,-1,-1,1,True,144.1035270690918,409.33775901794434,left,355.4324290752411,None,pp_05,icub,clamp,2021_Dec_21_1422,exp,2021.2.3,60.025817531305904,
right,go,0,0,0,0,10,5,65,4,355.93452405929565,None,1,0.4770848751068115,355.93452405929565,None,356.53562903404236,None,357.54475712776184,357.8969941139221,357.54475712776184,357.8969941139221,356.53562903404236,None,356.53562903404236,None,356.53562903404236,None,-1,-1,1,True,275.56610107421875,410.4936122894287,right,359.1097300052643,None,pp_05,icub,clamp,2021_Dec_21_1422,exp,2021.2.3,60.025817531305904,
right,stop,0,0,0,0,11,0,66,5,359.62753105163574,None,1,0.41187405586242676,359.62753105163574,None,360.1678800582886,None,361.1702220439911,361.5078959465027,361.1702220439911,361.5078959465027,360.1678800582886,None,360.1678800582886,None,360.1678800582886,None,200,250,0,True,270.47157287597656,491.13011360168457,right,362.8458881378174,None,pp_05,icub,clamp,2021_Dec_21_1422,exp,2021.2.3,60.025817531305904,
right,go,0,0,0,0,11,1,67,4,363.35096311569214,None,1,0.2686491012573242,363.35096311569214,None,363.71037006378174,None,364.73190116882324,365.10011196136475,364.73190116882324,365.10011196136475,363.71037006378174,None,363.71037006378174,None,363.71037006378174,None,-1,-1,1,True,321.40636444091797,520.9319591522217,right,366.4370319843292,None,pp_05,icub,clamp,2021_Dec_21_1422,exp,2021.2.3,60.025817531305904,
left,stop,0,0,0,0,11,2,68,2,366.9543499946594,None,1,0.28601694107055664,366.9543499946594,None,367.3729510307312,None,368.3896019458771,368.74546909332275,368.3896019458771,368.74546909332275,367.3729510307312,None,367.3729510307312,None,367.3729510307312,None,200,200,1,True,326.9460201263428,-1.0,-1,372.59407806396484,None,pp_05,icub,clamp,2021_Dec_21_1422,exp,2021.2.3,60.025817531305904,
left,stop,0,0,0,0,11,3,69,2,373.0924701690674,None,1,0.4285619258880615,373.0924701690674,None,373.64557099342346,None,374.65142917633057,375.0051951408386,374.65142917633057,375.0051951408386,373.64557099342346,None,373.64557099342346,None,373.64557099342346,None,250,200,1,True,293.52831840515137,-1.0,-1,378.83108711242676,None,pp_05,icub,clamp,2021_Dec_21_1422,exp,2021.2.3,60.025817531305904,
right,go,0,0,0,0,11,4,70,3,379.32895517349243,None,1,0.5292370319366455,379.32895517349243,None,379.9442219734192,None,380.92303109169006,381.2842571735382,380.92303109169006,381.2842571735382,379.9442219734192,None,379.9442219734192,None,379.9442219734192,None,-1,-1,1,True,91.33338928222656,433.52317810058594,right,382.34001898765564,None,pp_05,icub,clamp,2021_Dec_21_1422,exp,2021.2.3,60.025817531305904,
right,go,0,0,0,0,11,5,71,3,382.85233902931213,None,1,0.17399287223815918,382.85233902931213,None,383.1451280117035,None,384.14732813835144,384.50798416137695,384.14732813835144,384.50798416137695,383.1451280117035,None,383.1451280117035,None,383.1451280117035,None,-1,-1,1,True,444.67997550964355,415.4350757598877,right,385.88422107696533,None,pp_05,icub,clamp,2021_Dec_21_1422,exp,2021.2.3,60.025817531305904,
right,go,0,0,0,0,12,0,72,4,386.3854351043701,None,1,0.10309600830078125,386.3854351043701,None,386.6166160106659,None,387.63038897514343,387.979709148407,387.63038897514343,387.979709148407,386.6166160106659,None,386.6166160106659,None,386.6166160106659,None,-1,-1,1,True,293.5805320739746,500.8971691131592,right,389.2991020679474,None,pp_05,icub,clamp,2021_Dec_21_1422,exp,2021.2.3,60.025817531305904,
left,stop,0,0,0,0,12,1,73,2,389.82160997390747,None,1,0.19478392601013184,389.82160997390747,None,390.11845207214355,None,391.11958408355713,391.4748959541321,391.11958408355713,391.4748959541321,390.11845207214355,None,390.11845207214355,None,390.11845207214355,None,300,200,0,True,335.5903625488281,429.2757511138916,left,392.7730300426483,None,pp_05,icub,clamp,2021_Dec_21_1422,exp,2021.2.3,60.025817531305904,
right,go,0,0,0,0,12,2,74,4,393.28342604637146,None,1,0.09499406814575195,393.28342604637146,None,393.4540870189667,None,394.49117398262024,394.84726214408875,394.49117398262024,394.84726214408875,393.4540870189667,None,393.4540870189667,None,393.4540870189667,None,-1,-1,1,True,339.82205390930176,443.0563449859619,right,396.119567155838,None,pp_05,icub,clamp,2021_Dec_21_1422,exp,2021.2.3,60.025817531305904,
right,stop,0,0,0,0,12,3,75,5,396.6267831325531,None,1,0.15880703926086426,396.6267831325531,None,396.8609130382538,None,397.8616199493408,398.2194199562073,397.8616199493408,398.2194199562073,396.8609130382538,None,396.8609130382538,None,396.8609130382538,None,250,200,1,True,310.35304069519043,-1.0,-1,402.05406498908997,None,pp_05,icub,clamp,2021_Dec_21_1422,exp,2021.2.3,60.025817531305904,
right,go,0,0,0,0,12,4,76,3,402.58218812942505,None,1,0.40671801567077637,402.58218812942505,None,403.0732431411743,None,404.0523509979248,404.40075302124023,404.0523509979248,404.40075302124023,403.0732431411743,None,403.0732431411743,None,403.0732431411743,None,-1,-1,1,True,306.1718940734863,428.9891719818115,right,405.70889616012573,None,pp_05,icub,clamp,2021_Dec_21_1422,exp,2021.2.3,60.025817531305904,
left,go,0,0,0,0,12,5,77,1,406.2431790828705,None,1,0.19310784339904785,406.2431790828705,None,406.5371799468994,None,407.5402331352234,407.86851596832275,407.5402331352234,407.86851596832275,406.5371799468994,None,406.5371799468994,None,406.5371799468994,None,-1,-1,1,True,358.69574546813965,440.94014167785645,left,409.2289960384369,None,pp_05,icub,clamp,2021_Dec_21_1422,exp,2021.2.3,60.025817531305904,
left,stop,1,0,1,0,0,0,0,2,431.11240816116333,None,1,4.543071985244751,431.11240816116333,None,435.7746260166168,None,436.77176213264465,437.1268391609192,436.77176213264465,437.1268391609192,435.7746260166168,None,435.7746260166168,None,435.7746260166168,None,250,250,1,True,339.60986137390137,-1.0,-1,441.00170612335205,None,pp_05,icub,clamp,2021_Dec_21_1422,exp,2021.2.3,60.025817531305904,
right,go,1,0,1,0,0,1,1,4,441.49949502944946,None,1,1.0114409923553467,441.49949502944946,None,442.61493015289307,None,443.61149311065674,443.9704649448395,443.61149311065674,443.9704649448395,442.61493015289307,None,442.61493015289307,None,442.61493015289307,None,-1,-1,1,True,316.5745735168457,462.414026260376,right,445.2778799533844,None,pp_05,icub,clamp,2021_Dec_21_1422,exp,2021.2.3,60.025817531305904,
right,stop,1,0,1,0,0,2,2,5,445.7885630130768,None,1,0.16963982582092285,445.7885630130768,None,446.0810010433197,None,447.0819160938263,447.4491910934448,447.0819160938263,447.4491910934448,446.0810010433197,None,446.0810010433197,None,446.0810010433197,None,300,250,0,True,565.8106803894043,412.43839263916016,right,448.95477414131165,None,pp_05,icub,clamp,2021_Dec_21_1422,exp,2021.2.3,60.025817531305904,
right,go,1,0,1,0,0,3,3,4,449.4748160839081,None,1,0.03740882873535156,449.4748160839081,None,449.5876500606537,None,450.57478404045105,450.9332580566406,450.57478404045105,450.9332580566406,449.5876500606537,None,449.5876500606537,None,449.5876500606537,None,-1,-1,1,True,303.10893058776855,406.4483642578125,right,452.17874097824097,None,pp_05,icub,clamp,2021_Dec_21_1422,exp,2021.2.3,60.025817531305904,
right,go,1,0,1,0,0,4,4,3,452.70011711120605,None,1,0.26828908920288086,452.70011711120605,None,453.04880714416504,None,454.06864309310913,454.3918571472168,454.06864309310913,454.3918571472168,453.04880714416504,None,453.04880714416504,None,453.04880714416504,None,-1,-1,1,True,311.71131134033203,438.6162757873535,right,455.7057030200958,None,pp_05,icub,clamp,2021_Dec_21_1422,exp,2021.2.3,60.025817531305904,
left,go,1,0,1,0,0,5,5,1,456.2100601196289,None,1,0.2645289897918701,456.2100601196289,None,456.565397977829,None,457.57109212875366,457.9272611141205,457.57109212875366,457.9272611141205,456.565397977829,None,456.565397977829,None,456.565397977829,None,-1,-1,1,True,336.14516258239746,497.0428943634033,left,459.2676920890808,None,pp_05,icub,clamp,2021_Dec_21_1422,exp,2021.2.3,60.025817531305904,
left,go,1,0,1,0,1,0,6,0,459.7884759902954,None,1,0.2622249126434326,459.7884759902954,None,460.1444239616394,None,461.1367211341858,461.50223112106323,461.1367211341858,461.50223112106323,460.1444239616394,None,460.1444239616394,None,460.1444239616394,None,-1,-1,1,True,302.10328102111816,453.1290531158447,left,462.788880109787,None,pp_05,icub,clamp,2021_Dec_21_1422,exp,2021.2.3,60.025817531305904,
right,stop,1,0,1,0,1,1,7,5,463.32328701019287,None,1,0.17767786979675293,463.32328701019287,None,463.6140100955963,None,464.61734795570374,464.9667251110077,464.61734795570374,464.9667251110077,463.6140100955963,None,463.6140100955963,None,463.6140100955963,None,300,200,1,True,325.40011405944824,-1.0,-1,468.8264000415802,None,pp_05,icub,clamp,2021_Dec_21_1422,exp,2021.2.3,60.025817531305904,
right,go,1,0,1,0,1,2,8,4,469.3227801322937,None,1,0.6509971618652344,469.3227801322937,None,470.0632150173187,None,471.03932094573975,471.3796191215515,471.03932094573975,471.3796191215515,470.0632150173187,None,470.0632150173187,None,470.0632150173187,None,-1,-1,1,True,324.6803283691406,448.699951171875,right,472.7102291584015,None,pp_05,icub,clamp,2021_Dec_21_1422,exp,2021.2.3,60.025817531305904,
left,go,1,0,1,0,1,3,9,0,473.22385907173157,None,1,0.1984250545501709,473.22385907173157,None,473.5234251022339,None,474.5307490825653,474.8842279911041,474.5307490825653,474.8842279911041,473.5234251022339,None,473.5234251022339,None,473.5234251022339,None,-1,-1,1,True,346.6634750366211,454.2977809906006,left,476.20180916786194,None,pp_05,icub,clamp,2021_Dec_21_1422,exp,2021.2.3,60.025817531305904,
left,stop,1,0,1,0,1,4,10,2,476.70338916778564,None,1,0.1708228588104248,476.70338916778564,None,476.9970061779022,None,478.02419996261597,478.35987305641174,478.02419996261597,478.35987305641174,476.9970061779022,None,476.9970061779022,None,476.9970061779022,None,300,250,0,True,654.4101238250732,328.96971702575684,left,479.8851840496063,None,pp_05,icub,clamp,2021_Dec_21_1422,exp,2021.2.3,60.025817531305904,
right,go,1,0,1,0,1,5,11,3,480.3971121311188,None,1,0.450423002243042,480.3971121311188,None,480.9381721019745,None,481.9361181259155,482.28497314453125,481.9361181259155,482.28497314453125,480.9381721019745,None,480.9381721019745,None,480.9381721019745,None,-1,-1,1,True,413.1200313568115,436.95878982543945,right,483.6739959716797,None,pp_05,icub,clamp,2021_Dec_21_1422,exp,2021.2.3,60.025817531305904,
right,stop,1,0,1,0,2,0,12,5,484.19445610046387,None,1,0.2387409210205078,484.19445610046387,None,484.5463421344757,None,485.54182410240173,485.88740611076355,485.54182410240173,485.88740611076355,484.5463421344757,None,484.5463421344757,None,484.5463421344757,None,250,250,0,True,312.70909309387207,396.6085910797119,right,487.15978598594666,None,pp_05,icub,clamp,2021_Dec_21_1422,exp,2021.2.3,60.025817531305904,
left,go,1,0,1,0,2,1,13,1,487.67818307876587,None,1,0.08319997787475586,487.67818307876587,None,487.8522319793701,None,488.87050199508667,489.2297999858856,488.87050199508667,489.2297999858856,487.8522319793701,None,487.8522319793701,None,487.8522319793701,None,-1,-1,1,True,286.4687442779541,442.5177574157715,left,490.45433616638184,None,pp_05,icub,clamp,2021_Dec_21_1422,exp,2021.2.3,60.025817531305904,
right,go,1,0,1,0,2,2,14,4,490.96977496147156,None,1,0.10323500633239746,490.96977496147156,None,491.20146107673645,None,492.2144010066986,492.5483751296997,492.2144010066986,492.5483751296997,491.20146107673645,None,491.20146107673645,None,491.20146107673645,None,-1,-1,1,True,465.5871391296387,365.22412300109863,right,493.91090512275696,None,pp_05,icub,clamp,2021_Dec_21_1422,exp,2021.2.3,60.025817531305904,
left,go,1,0,1,0,2,3,15,1,494.4288020133972,None,1,0.3602790832519531,494.4288020133972,None,494.9089181423187,None,495.9349319934845,496.2915050983429,495.9349319934845,496.2915050983429,494.9089181423187,None,494.9089181423187,None,494.9089181423187,None,-1,-1,1,True,428.24840545654297,488.863468170166,left,497.69951605796814,None,pp_05,icub,clamp,2021_Dec_21_1422,exp,2021.2.3,60.025817531305904,
right,go,1,0,1,0,2,4,16,3,498.2062180042267,None,1,0.2482001781463623,498.2062180042267,None,498.56166410446167,None,499.5728991031647,499.93110513687134,499.5728991031647,499.93110513687134,498.56166410446167,None,498.56166410446167,None,498.56166410446167,None,-1,-1,1,True,371.7179298400879,525.3431797027588,right,501.3608901500702,None,pp_05,icub,clamp,2021_Dec_21_1422,exp,2021.2.3,60.025817531305904,
left,go,1,0,1,0,2,5,17,0,501.860249042511,None,1,0.5067729949951172,501.860249042511,None,502.4691970348358,None,503.47929215431213,503.83623695373535,503.47929215431213,503.83623695373535,502.4691970348358,None,502.4691970348358,None,502.4691970348358,None,-1,-1,1,True,332.1108818054199,519.3896293640137,left,505.21393394470215,None,pp_05,icub,clamp,2021_Dec_21_1422,exp,2021.2.3,60.025817531305904,
right,go,1,0,1,0,3,0,18,4,505.7168390750885,None,1,0.266434907913208,505.7168390750885,None,506.07398295402527,None,507.1088981628418,507.4648280143738,507.1088981628418,507.4648280143738,506.07398295402527,None,506.07398295402527,None,506.07398295402527,None,-1,-1,1,True,397.05872535705566,450.9997367858887,right,508.7929780483246,None,pp_05,icub,clamp,2021_Dec_21_1422,exp,2021.2.3,60.025817531305904,
right,stop,1,0,1,0,3,1,19,5,509.3274700641632,None,1,0.3697090148925781,509.3274700641632,None,509.80824613571167,None,510.8194341659546,511.17319798469543,510.8194341659546,511.17319798469543,509.80824613571167,None,509.80824613571167,None,509.80824613571167,None,250,200,1,True,309.42630767822266,-1.0,-1,514.9921669960022,None,pp_05,icub,clamp,2021_Dec_21_1422,exp,2021.2.3,60.025817531305904,
right,stop,1,0,1,0,3,2,20,5,515.4898869991302,None,1,0.8928852081298828,515.4898869991302,None,516.4787321090698,None,517.4588520526886,517.82506108284,517.4588520526886,517.82506108284,516.4787321090698,None,516.4787321090698,None,516.4787321090698,None,250,250,1,True,295.2582836151123,-1.0,-1,521.6549291610718,None,pp_05,icub,clamp,2021_Dec_21_1422,exp,2021.2.3,60.025817531305904,
right,go,1,0,1,0,3,3,21,4,522.152214050293,None,1,0.8653571605682373,522.152214050293,None,523.1403701305389,None,524.1458630561829,524.5053930282593,524.1458630561829,524.5053930282593,523.1403701305389,None,523.1403701305389,None,523.1403701305389,None,-1,-1,1,True,327.2125720977783,524.7375965118408,right,525.8907339572906,None,pp_05,icub,clamp,2021_Dec_21_1422,exp,2021.2.3,60.025817531305904,
left,go,1,0,1,0,3,4,22,1,526.4098470211029,None,1,0.25121402740478516,526.4098470211029,None,526.7658891677856,None,527.7595660686493,528.1224231719971,527.7595660686493,528.1224231719971,526.7658891677856,None,526.7658891677856,None,526.7658891677856,None,-1,-1,1,True,332.7319622039795,433.3043098449707,left,529.4114141464233,None,pp_05,icub,clamp,2021_Dec_21_1422,exp,2021.2.3,60.025817531305904,
left,go,1,0,1,0,3,5,23,0,529.921492099762,None,1,0.1474769115447998,529.921492099762,None,530.1548540592194,None,531.166906118393,531.5167951583862,531.166906118393,531.5167951583862,530.1548540592194,None,530.1548540592194,None,530.1548540592194,None,-1,-1,1,True,401.5536308288574,477.15210914611816,left,532.9269089698792,None,pp_05,icub,clamp,2021_Dec_21_1422,exp,2021.2.3,60.025817531305904,
right,go,1,0,1,0,4,0,24,3,533.4440269470215,None,1,0.11995100975036621,533.4440269470215,None,533.6781740188599,None,534.680920124054,535.0311691761017,534.680920124054,535.0311691761017,533.6781740188599,None,533.6781740188599,None,533.6781740188599,None,-1,-1,1,True,558.2032203674316,503.69811058044434,right,536.6517989635468,None,pp_05,icub,clamp,2021_Dec_21_1422,exp,2021.2.3,60.025817531305904,
right,go,1,0,1,0,4,1,25,4,537.1687431335449,None,1,0.15746498107910156,537.1687431335449,None,537.4019920825958,None,538.4197630882263,538.7727890014648,538.4197630882263,538.7727890014648,537.4019920825958,None,537.4019920825958,None,537.4019920825958,None,-1,-1,1,True,275.7678031921387,481.7390441894531,right,540.061625957489,None,pp_05,icub,clamp,2021_Dec_21_1422,exp,2021.2.3,60.025817531305904,
left,go,1,0,1,0,4,2,26,0,540.5789170265198,None,1,0.18018412590026855,540.5789170265198,None,540.8733811378479,None,541.8735589981079,542.2334539890289,541.8735589981079,542.2334539890289,540.8733811378479,None,540.8733811378479,None,540.8733811378479,None,-1,-1,1,True,348.56629371643066,538.6641025543213,left,543.6524751186371,None,pp_05,icub,clamp,2021_Dec_21_1422,exp,2021.2.3,60.025817531305904,
left,go,1,0,1,0,4,3,27,1,544.1838941574097,None,1,0.2110428810119629,544.1838941574097,None,544.4805309772491,None,545.500904083252,545.8613271713257,545.500904083252,545.8613271713257,544.4805309772491,None,544.4805309772491,None,544.4805309772491,None,-1,-1,1,True,336.03405952453613,599.2588996887207,left,547.3244330883026,None,pp_05,icub,clamp,2021_Dec_21_1422,exp,2021.2.3,60.025817531305904,
left,stop,1,0,1,0,4,4,28,2,547.857223033905,None,1,0.27493715286254883,547.857223033905,None,548.2175681591034,None,549.2269451618195,549.5858249664307,549.2269451618195,549.5858249664307,548.2175681591034,None,548.2175681591034,None,548.2175681591034,None,250,300,0,True,319.17548179626465,512.9060745239258,left,550.9446640014648,None,pp_05,icub,clamp,2021_Dec_21_1422,exp,2021.2.3,60.025817531305904,
left,go,1,0,1,0,4,5,29,1,551.4586460590363,None,1,0.16704297065734863,551.4586460590363,None,551.7486369609833,None,552.7759411334991,553.1331009864807,552.7759411334991,553.1331009864807,551.7486369609833,None,551.7486369609833,None,551.7486369609833,None,-1,-1,1,True,466.27068519592285,532.9480171203613,left,554.6273510456085,None,pp_05,icub,clamp,2021_Dec_21_1422,exp,2021.2.3,60.025817531305904,
right,stop,1,0,1,0,5,0,30,5,555.1487829685211,None,1,0.18129587173461914,555.1487829685211,None,555.4464681148529,None,556.4417359828949,556.7947471141815,556.4417359828949,556.7947471141815,555.4464681148529,None,555.4464681148529,None,555.4464681148529,None,200,300,0,True,309.66830253601074,536.585807800293,right,558.1666080951691,None,pp_05,icub,clamp,2021_Dec_21_1422,exp,2021.2.3,60.025817531305904,
right,go,1,0,1,0,5,1,31,4,558.6845991611481,None,1,0.14967107772827148,558.6845991611481,None,558.9195959568024,None,559.9086079597473,560.2559549808502,559.9086079597473,560.2559549808502,558.9195959568024,None,558.9195959568024,None,558.9195959568024,None,-1,-1,1,True,303.24244499206543,497.91646003723145,right,561.6348850727081,None,pp_05,icub,clamp,2021_Dec_21_1422,exp,2021.2.3,60.025817531305904,
left,go,1,0,1,0,5,2,32,0,562.1383910179138,None,1,0.24279117584228516,562.1383910179138,None,562.4956321716309,None,563.521625995636,563.8772029876709,563.521625995636,563.8772029876709,562.4956321716309,None,562.4956321716309,None,562.4956321716309,None,-1,-1,1,True,127.11501121520996,636.2438201904297,left,565.167473077774,None,pp_05,icub,clamp,2021_Dec_21_1422,exp,2021.2.3,60.025817531305904,
right,go,1,0,1,0,5,3,33,4,565.6841239929199,None,1,0.5213470458984375,565.6841239929199,None,566.290843963623,None,567.2884521484375,567.6503100395203,567.2884521484375,567.6503100395203,566.290843963623,None,566.290843963623,None,566.290843963623,None,-1,-1,1,True,321.7144012451172,500.6062984466553,right,568.9976041316986,None,pp_05,icub,clamp,2021_Dec_21_1422,exp,2021.2.3,60.025817531305904,
left,stop,1,0,1,0,5,4,34,2,569.5063469409943,None,1,0.21369004249572754,569.5063469409943,None,569.800793170929,None,570.8266091346741,571.1786241531372,570.8266091346741,571.1786241531372,569.800793170929,None,569.800793170929,None,569.800793170929,None,200,250,1,True,532.9923629760742,-1.0,-1,575.2333300113678,None,pp_05,icub,clamp,2021_Dec_21_1422,exp,2021.2.3,60.025817531305904,
left,stop,1,0,1,0,5,5,35,2,575.7299480438232,None,1,0.12747406959533691,575.7299480438232,None,575.9722211360931,None,576.9807529449463,577.3162150382996,576.9807529449463,577.3162150382996,575.9722211360931,None,575.9722211360931,None,575.9722211360931,None,250,250,1,True,338.1171226501465,-1.0,-1,581.1840541362762,None,pp_05,icub,clamp,2021_Dec_21_1422,exp,2021.2.3,60.025817531305904,
left,stop,1,0,1,0,6,0,36,2,581.681871175766,None,1,0.7687489986419678,581.681871175766,None,582.5461461544037,None,583.533518075943,583.8978600502014,583.533518075943,583.8978600502014,582.5461461544037,None,582.5461461544037,None,582.5461461544037,None,300,250,1,True,351.9091606140137,-1.0,-1,587.7806630134583,None,pp_05,icub,clamp,2021_Dec_21_1422,exp,2021.2.3,60.025817531305904,
right,stop,1,0,1,0,6,1,37,5,588.279196023941,None,1,0.8492097854614258,588.279196023941,None,589.2689270973206,None,590.243814945221,590.6089849472046,590.243814945221,590.6089849472046,589.2689270973206,None,589.2689270973206,None,589.2689270973206,None,350,250,1,True,312.29376792907715,-1.0,-1,594.4536430835724,None,pp_05,icub,clamp,2021_Dec_21_1422,exp,2021.2.3,60.025817531305904,
right,go,1,0,1,0,6,2,38,3,594.9531970024109,None,1,0.21526622772216797,594.9531970024109,None,595.2567620277405,None,596.2260589599609,596.5895941257477,596.2260589599609,596.5895941257477,595.2567620277405,None,595.2567620277405,None,595.2567620277405,None,-1,-1,1,True,313.8160705566406,430.42755126953125,right,597.8985290527344,None,pp_05,icub,clamp,2021_Dec_21_1422,exp,2021.2.3,60.025817531305904,
left,go,1,0,1,0,6,3,39,1,598.4118809700012,None,1,0.18587398529052734,598.4118809700012,None,598.7084591388702,None,599.7041890621185,600.058051109314,599.7041890621185,600.058051109314,598.7084591388702,None,598.7084591388702,None,598.7084591388702,None,-1,-1,1,True,355.09395599365234,447.8602409362793,left,601.4127769470215,None,pp_05,icub,clamp,2021_Dec_21_1422,exp,2021.2.3,60.025817531305904,
right,go,1,0,1,0,6,4,40,3,601.9485671520233,None,1,0.1601579189300537,601.9485671520233,None,602.1840240955353,None,603.1762511730194,603.548091173172,603.1762511730194,603.548091173172,602.1840240955353,None,602.1840240955353,None,602.1840240955353,None,-1,-1,1,True,305.0053119659424,445.467472076416,right,604.8184111118317,None,pp_05,icub,clamp,2021_Dec_21_1422,exp,2021.2.3,60.025817531305904,
left,go,1,0,1,0,6,5,41,1,605.338543176651,None,1,0.14139795303344727,605.338543176651,None,605.5645561218262,None,606.5767199993134,606.9348640441895,606.5767199993134,606.9348640441895,605.5645561218262,None,605.5645561218262,None,605.5645561218262,None,-1,-1,1,True,312.4096393585205,530.4772853851318,left,608.2923491001129,None,pp_05,icub,clamp,2021_Dec_21_1422,exp,2021.2.3,60.025817531305904,
right,go,1,0,1,0,7,0,42,4,608.8006660938263,None,1,0.2380380630493164,608.8006660938263,None,609.1572060585022,None,610.1872661113739,610.5431580543518,610.1872661113739,610.5431580543518,609.1572060585022,None,609.1572060585022,None,609.1572060585022,None,-1,-1,1,True,279.2937755584717,487.79749870300293,right,611.8365349769592,None,pp_05,icub,clamp,2021_Dec_21_1422,exp,2021.2.3,60.025817531305904,
right,go,1,0,1,0,7,1,43,4,612.3646969795227,None,1,0.1922008991241455,612.3646969795227,None,612.6582930088043,None,613.6655559539795,614.0345361232758,613.6655559539795,614.0345361232758,612.6582930088043,None,612.6582930088043,None,612.6582930088043,None,-1,-1,1,True,294.5690155029297,525.7377624511719,right,615.3740611076355,None,pp_05,icub,clamp,2021_Dec_21_1422,exp,2021.2.3,60.025817531305904,
left,go,1,0,1,0,7,2,44,0,615.8857569694519,None,1,0.18342089653015137,615.8857569694519,None,616.1799211502075,None,617.1804640293121,617.5330591201782,617.1804640293121,617.5330591201782,616.1799211502075,None,616.1799211502075,None,616.1799211502075,None,-1,-1,1,True,294.71874237060547,511.5995407104492,left,618.8836979866028,None,pp_05,icub,clamp,2021_Dec_21_1422,exp,2021.2.3,60.025817531305904,
right,go,1,0,1,0,7,3,45,3,619.3938250541687,None,1,0.32300591468811035,619.3938250541687,None,619.8179559707642,None,620.8417391777039,621.1967771053314,620.8417391777039,621.1967771053314,619.8179559707642,None,619.8179559707642,None,619.8179559707642,None,-1,-1,1,True,294.76380348205566,518.1457996368408,right,622.5214231014252,None,pp_05,icub,clamp,2021_Dec_21_1422,exp,2021.2.3,60.025817531305904,
right,go,1,0,1,0,7,4,46,3,623.04185795784,None,1,0.3358938694000244,623.04185795784,None,623.4630711078644,None,624.4888470172882,624.8408980369568,624.4888470172882,624.8408980369568,623.4630711078644,None,623.4630711078644,None,623.4630711078644,None,-1,-1,1,True,323.37117195129395,471.0659980773926,right,626.1232261657715,None,pp_05,icub,clamp,2021_Dec_21_1422,exp,2021.2.3,60.025817531305904,
right,stop,1,0,1,0,7,5,47,5,626.63942694664,None,1,0.2671539783477783,626.63942694664,None,626.9970991611481,None,628.0027301311493,628.3552379608154,628.0027301311493,628.3552379608154,626.9970991611481,None,626.9970991611481,None,626.9970991611481,None,350,300,1,True,303.62510681152344,-1.0,-1,632.1793849468231,None,pp_05,icub,clamp,2021_Dec_21_1422,exp,2021.2.3,60.025817531305904,
right,go,1,0,1,0,8,0,48,4,632.677698135376,None,1,0.5126731395721436,632.677698135376,None,633.2932620048523,None,634.2678899765015,634.59996509552,634.2678899765015,634.59996509552,633.2932620048523,None,633.2932620048523,None,633.2932620048523,None,-1,-1,1,True,300.68111419677734,656.7995548248291,right,636.126650094986,None,pp_05,icub,clamp,2021_Dec_21_1422,exp,2021.2.3,60.025817531305904,
left,go,1,0,1,0,8,1,49,1,636.6410300731659,None,1,0.2590961456298828,636.6410300731659,None,637.0010240077972,None,638.0326120853424,638.3779380321503,638.0326120853424,638.3779380321503,637.0010240077972,None,637.0010240077972,None,637.0010240077972,None,-1,-1,1,True,490.6637668609619,529.0219783782959,left,639.9273121356964,None,pp_05,icub,clamp,2021_Dec_21_1422,exp,2021.2.3,60.025817531305904,
left,stop,1,0,1,0,8,2,50,2,640.4457061290741,None,1,0.25704503059387207,640.4457061290741,None,640.7962820529938,None,641.8001570701599,642.151340007782,641.8001570701599,642.151340007782,640.7962820529938,None,640.7962820529938,None,640.7962820529938,None,350,350,0,True,327.30841636657715,557.6741695404053,left,643.5982489585876,None,pp_05,icub,clamp,2021_Dec_21_1422,exp,2021.2.3,60.025817531305904,
right,go,1,0,1,0,8,3,51,3,644.115040063858,None,1,0.26383304595947266,644.115040063858,None,644.4703030586243,None,645.4878690242767,645.8409819602966,645.4878690242767,645.8409819602966,644.4703030586243,None,644.4703030586243,None,644.4703030586243,None,-1,-1,1,True,328.1869888305664,542.269229888916,right,647.2471029758453,None,pp_05,icub,clamp,2021_Dec_21_1422,exp,2021.2.3,60.025817531305904,
left,go,1,0,1,0,8,4,52,1,647.7682030200958,None,1,0.30661511421203613,647.7682030200958,None,648.1858069896698,None,649.1975321769714,649.5540051460266,649.1975321769714,649.5540051460266,648.1858069896698,None,648.1858069896698,None,648.1858069896698,None,-1,-1,1,True,312.52408027648926,528.3911228179932,left,650.926234960556,None,pp_05,icub,clamp,2021_Dec_21_1422,exp,2021.2.3,60.025817531305904,
right,go,1,0,1,0,8,5,53,3,651.4264810085297,None,1,0.20981311798095703,651.4264810085297,None,651.7221040725708,None,652.7240519523621,653.0823121070862,652.7240519523621,653.0823121070862,651.7221040725708,None,651.7221040725708,None,651.7221040725708,None,-1,-1,1,True,308.86030197143555,490.8878803253174,right,654.4123849868774,None,pp_05,icub,clamp,2021_Dec_21_1422,exp,2021.2.3,60.025817531305904,
left,go,1,0,1,0,9,0,54,1,654.9286479949951,None,1,0.23103785514831543,654.9286479949951,None,655.2835381031036,None,656.3123631477356,656.6549551486969,656.3123631477356,656.6549551486969,655.2835381031036,None,655.2835381031036,None,655.2835381031036,None,-1,-1,1,True,283.7250232696533,551.3181686401367,left,658.0155220031738,None,pp_05,icub,clamp,2021_Dec_21_1422,exp,2021.2.3,60.025817531305904,
right,stop,1,0,1,0,9,1,55,5,658.5315790176392,None,1,0.18617510795593262,658.5315790176392,None,658.8279881477356,None,659.8253190517426,660.1741030216217,659.8253190517426,660.1741030216217,658.8279881477356,None,658.8279881477356,None,658.8279881477356,None,300,350,0,True,282.5357913970947,522.9847431182861,right,661.548397064209,None,pp_05,icub,clamp,2021_Dec_21_1422,exp,2021.2.3,60.025817531305904,
left,stop,1,0,1,0,9,2,56,2,662.0723631381989,None,1,0.2843630313873291,662.0723631381989,None,662.4323880672455,None,663.4417519569397,663.7877130508423,663.4417519569397,663.7877130508423,662.4323880672455,None,662.4323880672455,None,662.4323880672455,None,300,300,0,True,351.3679504394531,529.2263031005859,left,665.1960940361023,None,pp_05,icub,clamp,2021_Dec_21_1422,exp,2021.2.3,60.025817531305904,
left,go,1,0,1,0,9,3,57,0,665.7219791412354,None,1,0.026411056518554688,665.7219791412354,None,665.8337459564209,None,666.8269250392914,667.1823389530182,666.8269250392914,667.1823389530182,665.8337459564209,None,665.8337459564209,None,665.8337459564209,None,-1,-1,1,True,266.4320468902588,528.8088321685791,left,668.5183370113373,None,pp_05,icub,clamp,2021_Dec_21_1422,exp,2021.2.3,60.025817531305904,
left,stop,1,0,1,0,9,4,58,2,669.0401141643524,None,1,0.12544512748718262,669.0401141643524,None,669.2636320590973,None,670.285402059555,670.6368019580841,670.285402059555,670.6368019580841,669.2636320590973,None,669.2636320590973,None,669.2636320590973,None,250,300,1,True,302.11353302001953,-1.0,-1,674.4544460773468,None,pp_05,icub,clamp,2021_Dec_21_1422,exp,2021.2.3,60.025817531305904,
left,go,1,0,1,0,9,5,59,0,674.9518451690674,None,1,0.576308012008667,674.9518451690674,None,675.6310091018677,None,676.609827041626,676.959862947464,676.609827041626,676.959862947464,675.6310091018677,None,675.6310091018677,None,675.6310091018677,None,-1,-1,1,True,282.5298309326172,542.2282218933105,left,678.3527340888977,None,pp_05,icub,clamp,2021_Dec_21_1422,exp,2021.2.3,60.025817531305904,
left,go,1,0,1,0,10,0,60,0,678.8862669467926,None,1,0.15638494491577148,678.8862669467926,None,679.1806039810181,None,680.1862461566925,680.5520300865173,680.1862461566925,680.5520300865173,679.1806039810181,None,679.1806039810181,None,679.1806039810181,None,-1,-1,1,True,344.82359886169434,454.0865421295166,left,681.8741459846497,None,pp_05,icub,clamp,2021_Dec_21_1422,exp,2021.2.3,60.025817531305904,
right,go,1,0,1,0,10,1,61,3,682.3723781108856,None,1,0.3329169750213623,682.3723781108856,None,682.7906169891357,None,683.7785460948944,684.1361050605774,683.7785460948944,684.1361050605774,682.7906169891357,None,682.7906169891357,None,682.7906169891357,None,-1,-1,1,True,491.1811351776123,462.4500274658203,right,685.6223940849304,None,pp_05,icub,clamp,2021_Dec_21_1422,exp,2021.2.3,60.025817531305904,
right,stop,1,0,1,0,10,2,62,5,686.1302690505981,None,1,0.25327014923095703,686.1302690505981,None,686.4902210235596,None,687.5007450580597,687.8565909862518,687.5007450580597,687.8565909862518,686.4902210235596,None,686.4902210235596,None,686.4902210235596,None,300,300,0,True,311.13338470458984,486.9842529296875,right,689.1832301616669,None,pp_05,icub,clamp,2021_Dec_21_1422,exp,2021.2.3,60.025817531305904,
right,stop,1,0,1,0,10,3,63,5,689.6977241039276,None,1,0.12479615211486816,689.6977241039276,None,689.9300420284271,None,690.9380271434784,691.2771580219269,690.9380271434784,691.2771580219269,689.9300420284271,None,689.9300420284271,None,689.9300420284271,None,300,250,0,True,286.6084575653076,531.8529605865479,right,692.6582310199738,None,pp_05,icub,clamp,2021_Dec_21_1422,exp,2021.2.3,60.025817531305904,
right,stop,1,0,1,0,10,4,64,5,693.1839210987091,None,1,1.032228946685791,693.1839210987091,None,694.3464810848236,None,695.3195769786835,695.6832530498505,695.3195769786835,695.6832530498505,694.3464810848236,None,694.3464810848236,None,694.3464810848236,None,300,200,1,True,254.64153289794922,-1.0,-1,699.4822731018066,None,pp_05,icub,clamp,2021_Dec_21_1422,exp,2021.2.3,60.025817531305904,
right,go,1,0,1,0,10,5,65,3,699.9821121692657,None,1,0.942986011505127,699.9821121692657,None,701.0331990718842,None,702.0075891017914,702.3569741249084,702.0075891017914,702.3569741249084,701.0331990718842,None,701.0331990718842,None,701.0331990718842,None,-1,-1,1,True,190.38867950439453,537.1274948120117,right,703.6582021713257,None,pp_05,icub,clamp,2021_Dec_21_1422,exp,2021.2.3,60.025817531305904,
left,go,1,0,1,0,11,0,66,1,704.1753530502319,None,1,0.17127084732055664,704.1753530502319,None,704.4699110984802,None,705.486566066742,705.8420181274414,705.486566066742,705.8420181274414,704.4699110984802,None,704.4699110984802,None,704.4699110984802,None,-1,-1,1,True,278.5770893096924,601.2630462646484,left,707.2476439476013,None,pp_05,icub,clamp,2021_Dec_21_1422,exp,2021.2.3,60.025817531305904,
right,stop,1,0,1,0,11,1,67,5,707.748339176178,None,1,0.2521700859069824,707.748339176178,None,708.1020591259003,None,709.1188881397247,709.47412109375,709.1188881397247,709.47412109375,708.1020591259003,None,708.1020591259003,None,708.1020591259003,None,300,250,1,True,271.44646644592285,-1.0,-1,713.2788391113281,None,pp_05,icub,clamp,2021_Dec_21_1422,exp,2021.2.3,60.025817531305904,
right,go,1,0,1,0,11,2,68,3,713.777379989624,None,1,0.7027928829193115,713.777379989624,None,714.5808200836182,None,715.5521700382233,715.8951210975647,715.5521700382233,715.8951210975647,714.5808200836182,None,714.5808200836182,None,714.5808200836182,None,-1,-1,1,True,184.14306640625,445.53518295288086,right,717.0990381240845,None,pp_05,icub,clamp,2021_Dec_21_1422,exp,2021.2.3,60.025817531305904,
left,go,1,0,1,0,11,3,69,0,717.6319711208344,None,1,0.1685030460357666,717.6319711208344,None,717.9236290454865,None,718.919420003891,719.2896840572357,718.919420003891,719.2896840572357,717.9236290454865,None,717.9236290454865,None,717.9236290454865,None,-1,-1,1,True,357.2807312011719,405.78341484069824,left,720.5850479602814,None,pp_05,icub,clamp,2021_Dec_21_1422,exp,2021.2.3,60.025817531305904,
left,stop,1,0,1,0,11,4,70,2,721.1136040687561,None,1,0.17891788482666016,721.1136040687561,None,721.4066941738129,None,722.4172179698944,722.777202129364,722.4172179698944,722.777202129364,721.4066941738129,None,721.4066941738129,None,721.4066941738129,None,300,300,0,True,311.54870986938477,471.5852737426758,left,724.0879189968109,None,pp_05,icub,clamp,2021_Dec_21_1422,exp,2021.2.3,60.025817531305904,
left,go,1,0,1,0,11,5,71,0,724.5932929515839,None,1,0.13111591339111328,724.5932929515839,None,724.8260841369629,None,725.8313150405884,726.1866850852966,725.8313150405884,726.1866850852966,724.8260841369629,None,724.8260841369629,None,724.8260841369629,None,-1,-1,1,True,355.13758659362793,474.8406410217285,left,727.5612189769745,None,pp_05,icub,clamp,2021_Dec_21_1422,exp,2021.2.3,60.025817531305904,
left,go,1,0,1,0,12,0,72,1,728.0778510570526,None,1,0.06361508369445801,728.0778510570526,None,728.2524189949036,None,729.2794721126556,729.635066986084,729.2794721126556,729.635066986084,728.2524189949036,None,728.2524189949036,None,728.2524189949036,None,-1,-1,1,True,433.4068298339844,487.69664764404297,left,731.0480780601501,None,pp_05,icub,clamp,2021_Dec_21_1422,exp,2021.2.3,60.025817531305904,
right,go,1,0,1,0,12,1,73,4,731.5577540397644,None,1,0.10672903060913086,731.5577540397644,None,731.7879700660706,None,732.8117210865021,733.1526870727539,732.8117210865021,733.1526870727539,731.7879700660706,None,731.7879700660706,None,731.7879700660706,None,-1,-1,1,True,326.9081115722656,415.93098640441895,right,734.4070410728455,None,pp_05,icub,clamp,2021_Dec_21_1422,exp,2021.2.3,60.025817531305904,
left,stop,1,0,1,0,12,2,74,2,734.9285180568695,None,1,0.11637997627258301,734.9285180568695,None,735.1648371219635,None,736.1874101161957,736.5509359836578,736.1874101161957,736.5509359836578,735.1648371219635,None,735.1648371219635,None,735.1648371219635,None,250,300,0,True,351.9279956817627,472.17583656311035,left,737.8679831027985,None,pp_05,icub,clamp,2021_Dec_21_1422,exp,2021.2.3,60.025817531305904,
left,stop,1,0,1,0,12,3,75,2,738.3856790065765,None,1,1.6706900596618652,738.3856790065765,None,740.1503901481628,None,741.1247489452362,741.4802341461182,741.1247489452362,741.4802341461182,740.1503901481628,None,740.1503901481628,None,740.1503901481628,None,200,300,1,True,398.0259895324707,-1.0,-1,745.4559371471405,None,pp_05,icub,clamp,2021_Dec_21_1422,exp,2021.2.3,60.025817531305904,
left,stop,1,0,1,0,12,4,76,2,745.9492340087891,None,1,0.6297738552093506,745.9492340087891,None,746.6908950805664,None,747.6738181114197,748.0292129516602,747.6738181114197,748.0292129516602,746.6908950805664,None,746.6908950805664,None,746.6908950805664,None,250,300,1,True,284.4736576080322,-1.0,-1,751.8746020793915,None,pp_05,icub,clamp,2021_Dec_21_1422,exp,2021.2.3,60.025817531305904,
left,go,1,0,1,0,12,5,77,0,752.3725681304932,None,1,0.6405029296875,752.3725681304932,None,753.1130380630493,None,754.091166973114,754.4372301101685,754.091166973114,754.4372301101685,753.1130380630493,None,753.1130380630493,None,753.1130380630493,None,-1,-1,1,True,369.31419372558594,472.22256660461426,left,755.8519561290741,None,pp_05,icub,clamp,2021_Dec_21_1422,exp,2021.2.3,60.025817531305904,
left,go,2,0,2,0,0,0,0,1,768.9335031509399,None,1,14.541038036346436,768.9335031509399,None,783.575649023056,None,784.5966970920563,784.9574179649353,784.5966970920563,784.9574179649353,783.575649023056,None,783.575649023056,None,783.575649023056,None,-1,-1,1,True,514.5585536956787,519.0234184265137,left,786.5190300941467,None,pp_05,icub,clamp,2021_Dec_21_1422,exp,2021.2.3,60.025817531305904,
left,go,2,0,2,0,0,1,1,0,787.038083076477,None,1,0.27046704292297363,787.038083076477,None,787.3942840099335,None,788.3879210948944,788.7386510372162,788.3879210948944,788.7386510372162,787.3942840099335,None,787.3942840099335,None,787.3942840099335,None,-1,-1,1,True,325.3307342529297,572.1204280853271,left,790.1673481464386,None,pp_05,icub,clamp,2021_Dec_21_1422,exp,2021.2.3,60.025817531305904,
right,stop,2,0,2,0,0,2,2,5,790.7023890018463,None,1,0.2930741310119629,790.7023890018463,None,791.1186320781708,None,792.1350951194763,792.487202167511,792.1350951194763,792.487202167511,791.1186320781708,None,791.1186320781708,None,791.1186320781708,None,300,300,0,True,338.1805419921875,518.1095600128174,right,793.8813850879669,None,pp_05,icub,clamp,2021_Dec_21_1422,exp,2021.2.3,60.025817531305904,
left,go,2,0,2,0,0,3,3,0,794.3869471549988,None,1,0.06932806968688965,794.3869471549988,None,794.5605511665344,None,795.572457075119,795.9173820018768,795.572457075119,795.9173820018768,794.5605511665344,None,794.5605511665344,None,794.5605511665344,None,-1,-1,1,True,259.68217849731445,565.4580593109131,left,797.2673161029816,None,pp_05,icub,clamp,2021_Dec_21_1422,exp,2021.2.3,60.025817531305904,
right,go,2,0,2,0,0,4,4,4,797.787661075592,None,1,0.1584770679473877,797.787661075592,None,798.021665096283,None,799.0232429504395,799.3693051338196,799.0232429504395,799.3693051338196,798.021665096283,None,798.021665096283,None,798.021665096283,None,-1,-1,1,True,204.98394966125488,520.8358764648438,right,800.6199541091919,None,pp_05,icub,clamp,2021_Dec_21_1422,exp,2021.2.3,60.025817531305904,
left,stop,2,0,2,0,0,5,5,2,801.1407001018524,None,1,0.16253113746643066,801.1407001018524,None,801.4309720993042,None,802.4533920288086,802.8131330013275,802.4533920288086,802.8131330013275,801.4309720993042,None,801.4309720993042,None,801.4309720993042,None,300,250,1,True,259.60326194763184,-1.0,-1,806.5926179885864,None,pp_05,icub,clamp,2021_Dec_21_1422,exp,2021.2.3,60.025817531305904,
left,go,2,0,2,0,1,0,6,0,807.0917489528656,None,1,2.1010360717773438,807.0917489528656,None,809.321375131607,None,810.304535150528,810.6634709835052,810.304535150528,810.6634709835052,809.321375131607,None,809.321375131607,None,809.321375131607,None,-1,-1,1,True,428.18617820739746,466.18080139160156,left,812.0801920890808,None,pp_05,icub,clamp,2021_Dec_21_1422,exp,2021.2.3,60.025817531305904,
right,go,2,0,2,0,1,1,7,3,812.6000530719757,None,1,0.20765113830566406,812.6000530719757,None,812.8934571743011,None,813.9046549797058,814.2406890392303,813.9046549797058,814.2406890392303,812.8934571743011,None,812.8934571743011,None,812.8934571743011,None,-1,-1,1,True,261.6691589355469,510.52141189575195,right,815.5553679466248,None,pp_05,icub,clamp,2021_Dec_21_1422,exp,2021.2.3,60.025817531305904,
left,go,2,0,2,0,1,2,8,1,816.0834629535675,None,1,0.25679993629455566,816.0834629535675,None,816.4417011737823,None,817.4555201530457,817.8132679462433,817.4555201530457,817.8132679462433,816.4417011737823,None,816.4417011737823,None,816.4417011737823,None,-1,-1,1,True,424.0245819091797,481.6582202911377,left,819.2483730316162,None,pp_05,icub,clamp,2021_Dec_21_1422,exp,2021.2.3,60.025817531305904,
left,go,2,0,2,0,1,3,9,1,819.7506639957428,None,1,0.1666100025177002,819.7506639957428,None,820.0449869632721,None,821.0474150180817,821.3905091285706,821.0474150180817,821.3905091285706,820.0449869632721,None,820.0449869632721,None,820.0449869632721,None,-1,-1,1,True,250.52618980407715,490.09037017822266,left,822.6598601341248,None,pp_05,icub,clamp,2021_Dec_21_1422,exp,2021.2.3,60.025817531305904,
left,stop,2,0,2,0,1,4,10,2,823.180449962616,None,1,0.15423583984375,823.180449962616,None,823.4151570796967,None,824.41051197052,824.7682530879974,824.41051197052,824.7682530879974,823.4151570796967,None,823.4151570796967,None,823.4151570796967,None,350,250,0,True,265.1982307434082,481.98938369750977,left,826.0517001152039,None,pp_05,icub,clamp,2021_Dec_21_1422,exp,2021.2.3,60.025817531305904,
left,stop,2,0,2,0,1,5,11,2,826.5478370189667,None,1,0.1373310089111328,826.5478370189667,None,826.7865719795227,None,827.7876040935516,828.1183760166168,827.7876040935516,828.1183760166168,826.7865719795227,None,826.7865719795227,None,826.7865719795227,None,300,250,0,True,193.09473037719727,469.3121910095215,left,829.3518800735474,None,pp_05,icub,clamp,2021_Dec_21_1422,exp,2021.2.3,60.025817531305904,
right,go,2,0,2,0,2,0,12,3,829.8688139915466,None,1,0.018538951873779297,829.8688139915466,None,829.9778821468353,None,830.9633049964905,831.3292961120605,830.9633049964905,831.3292961120605,829.9778821468353,None,829.9778821468353,None,829.9778821468353,None,-1,-1,1,True,284.52491760253906,410.6483459472656,right,832.5801091194153,None,pp_05,icub,clamp,2021_Dec_21_1422,exp,2021.2.3,60.025817531305904,
right,go,2,0,2,0,2,1,13,3,833.0837099552155,None,1,0.1673882007598877,833.0837099552155,None,833.3793749809265,None,834.3924829959869,834.7328419685364,834.3924829959869,834.7328419685364,833.3793749809265,None,833.3793749809265,None,833.3793749809265,None,-1,-1,1,True,268.4156894683838,390.98358154296875,right,835.9149751663208,None,pp_05,icub,clamp,2021_Dec_21_1422,exp,2021.2.3,60.025817531305904,
left,go,2,0,2,0,2,2,14,0,836.4218511581421,None,1,0.20428085327148438,836.4218511581421,None,836.7168200016022,None,837.740168094635,838.0901081562042,837.740168094635,838.0901081562042,836.7168200016022,None,836.7168200016022,None,836.7168200016022,None,-1,-1,1,True,298.37632179260254,540.2073860168457,left,839.4590620994568,None,pp_05,icub,clamp,2021_Dec_21_1422,exp,2021.2.3,60.025817531305904,
right,go,2,0,2,0,2,3,15,4,839.9743800163269,None,1,0.14629888534545898,839.9743800163269,None,840.209391117096,None,841.2113840579987,841.5441560745239,841.2113840579987,841.5441560745239,840.209391117096,None,840.209391117096,None,840.209391117096,None,-1,-1,1,True,293.7483787536621,502.1040439605713,right,842.9048690795898,None,pp_05,icub,clamp,2021_Dec_21_1422,exp,2021.2.3,60.025817531305904,
left,go,2,0,2,0,2,4,16,1,843.4267821311951,None,1,0.12975311279296875,843.4267821311951,None,843.6639909744263,None,844.6888649463654,845.0519659519196,844.6888649463654,845.0519659519196,843.6639909744263,None,843.6639909744263,None,843.6639909744263,None,-1,-1,1,True,317.0809745788574,566.1487579345703,left,846.4266510009766,None,pp_05,icub,clamp,2021_Dec_21_1422,exp,2021.2.3,60.025817531305904,
left,go,2,0,2,0,2,5,17,1,846.9572730064392,None,1,0.6329300403594971,846.9572730064392,None,847.6914210319519,None,848.694990158081,849.0586521625519,848.694990158081,849.0586521625519,847.6914210319519,None,847.6914210319519,None,847.6914210319519,None,-1,-1,1,True,272.95398712158203,544.8510646820068,left,850.3835470676422,None,pp_05,icub,clamp,2021_Dec_21_1422,exp,2021.2.3,60.025817531305904,
right,go,2,0,2,0,3,0,18,3,850.8922591209412,None,1,0.235792875289917,850.8922591209412,None,851.2471671104431,None,852.2709300518036,852.6199910640717,852.2709300518036,852.6199910640717,851.2471671104431,None,851.2471671104431,None,851.2471671104431,None,-1,-1,1,True,315.6607151031494,428.6468029022217,right,853.8925061225891,None,pp_05,icub,clamp,2021_Dec_21_1422,exp,2021.2.3,60.025817531305904,
right,stop,2,0,2,0,3,1,19,5,854.4129540920258,None,1,0.22329020500183105,854.4129540920258,None,854.7069470882416,None,855.7153279781342,856.0625159740448,855.7153279781342,856.0625159740448,854.7069470882416,None,854.7069470882416,None,854.7069470882416,None,250,250,0,True,264.14990425109863,465.78073501586914,right,857.330649137497,None,pp_05,icub,clamp,2021_Dec_21_1422,exp,2021.2.3,60.025817531305904,
left,go,2,0,2,0,3,2,20,1,857.8477351665497,None,1,0.027359962463378906,857.8477351665497,None,857.9603040218353,None,858.9556000232697,859.3124051094055,858.9556000232697,859.3124051094055,857.9603040218353,None,857.9603040218353,None,857.9603040218353,None,-1,-1,1,True,329.5004367828369,641.3919925689697,left,860.8116619586945,None,pp_05,icub,clamp,2021_Dec_21_1422,exp,2021.2.3,60.025817531305904,
left,go,2,0,2,0,3,3,21,0,861.311331987381,None,1,0.22992300987243652,861.311331987381,None,861.6645700931549,None,862.6952700614929,863.0491361618042,862.6952700614929,863.0491361618042,861.6645700931549,None,861.6645700931549,None,861.6645700931549,None,-1,-1,1,True,291.4273738861084,446.52795791625977,left,864.3090569972992,None,pp_05,icub,clamp,2021_Dec_21_1422,exp,2021.2.3,60.025817531305904,
left,go,2,0,2,0,3,4,22,1,864.8348989486694,None,1,0.2840869426727295,864.8348989486694,None,865.1945290565491,None,866.2100269794464,866.5560710430145,866.2100269794464,866.5560710430145,865.1945290565491,None,865.1945290565491,None,865.1945290565491,None,-1,-1,1,True,253.54695320129395,609.6899509429932,left,867.9575200080872,None,pp_05,icub,clamp,2021_Dec_21_1422,exp,2021.2.3,60.025817531305904,
left,go,2,0,2,0,3,5,23,0,868.4722239971161,None,1,0.19007515907287598,868.4722239971161,None,868.7675831317902,None,869.763090133667,870.1294829845428,869.763090133667,870.1294829845428,868.7675831317902,None,868.7675831317902,None,868.7675831317902,None,-1,-1,1,True,228.38568687438965,585.8767032623291,left,871.4676189422607,None,pp_05,icub,clamp,2021_Dec_21_1422,exp,2021.2.3,60.025817531305904,
right,go,2,0,2,0,4,0,24,4,871.9855110645294,None,1,0.1566460132598877,871.9855110645294,None,872.217698097229,None,873.2194261550903,873.5805180072784,873.2194261550903,873.5805180072784,872.217698097229,None,872.217698097229,None,872.217698097229,None,-1,-1,1,True,272.19605445861816,518.7516212463379,right,874.9006271362305,None,pp_05,icub,clamp,2021_Dec_21_1422,exp,2021.2.3,60.025817531305904,
right,go,2,0,2,0,4,1,25,3,875.4222180843353,None,1,0.08298206329345703,875.4222180843353,None,875.595988035202,None,876.6089341640472,876.9586470127106,876.6089341640472,876.9586470127106,875.595988035202,None,875.595988035202,None,875.595988035202,None,-1,-1,1,True,272.3238468170166,553.5342693328857,right,878.3049581050873,None,pp_05,icub,clamp,2021_Dec_21_1422,exp,2021.2.3,60.025817531305904,
left,go,2,0,2,0,4,2,26,1,878.8238899707794,None,1,0.10923600196838379,878.8238899707794,None,879.0561351776123,None,880.0719079971313,880.422975063324,880.0719079971313,880.422975063324,879.0561351776123,None,879.0561351776123,None,879.0561351776123,None,-1,-1,1,True,301.3474941253662,488.50274085998535,left,881.726499080658,None,pp_05,icub,clamp,2021_Dec_21_1422,exp,2021.2.3,60.025817531305904,
left,go,2,0,2,0,4,3,27,0,882.23340010643,None,1,0.0916750431060791,882.23340010643,None,882.4055721759796,None,883.4236409664154,883.7721560001373,883.4236409664154,883.7721560001373,882.4055721759796,None,882.4055721759796,None,882.4055721759796,None,-1,-1,1,True,194.98920440673828,436.70201301574707,left,884.9269580841064,None,pp_05,icub,clamp,2021_Dec_21_1422,exp,2021.2.3,60.025817531305904,
right,go,2,0,2,0,4,4,28,4,885.4469981193542,None,1,0.07725811004638672,885.4469981193542,None,885.6201350688934,None,886.6104590892792,886.9651880264282,886.6104590892792,886.9651880264282,885.6201350688934,None,885.6201350688934,None,885.6201350688934,None,-1,-1,1,True,322.74365425109863,466.69697761535645,right,888.278923034668,None,pp_05,icub,clamp,2021_Dec_21_1422,exp,2021.2.3,60.025817531305904,
right,go,2,0,2,0,4,5,29,4,888.7909750938416,None,1,0.11503195762634277,888.7909750938416,None,889.0257420539856,None,890.0511529445648,890.4142751693726,890.0511529445648,890.4142751693726,889.0257420539856,None,889.0257420539856,None,889.0257420539856,None,-1,-1,1,True,289.5846366882324,413.1011962890625,right,891.6068229675293,None,pp_05,icub,clamp,2021_Dec_21_1422,exp,2021.2.3,60.025817531305904,
left,go,2,0,2,0,5,0,30,1,892.1181099414825,None,1,0.0958089828491211,892.1181099414825,None,892.346892118454,None,893.3574011325836,893.7095110416412,893.3574011325836,893.7095110416412,892.346892118454,None,892.346892118454,None,892.346892118454,None,-1,-1,1,True,250.40483474731445,514.5115852355957,left,895.0043711662292,None,pp_05,icub,clamp,2021_Dec_21_1422,exp,2021.2.3,60.025817531305904,
left,stop,2,0,2,0,5,1,31,2,895.5137629508972,None,1,0.018262863159179688,895.5137629508972,None,895.6225950717926,None,896.6455910205841,896.9922440052032,896.6455910205841,896.9922440052032,895.6225950717926,None,895.6225950717926,None,895.6225950717926,None,250,200,0,True,212.14056015014648,452.87227630615234,left,898.1636459827423,None,pp_05,icub,clamp,2021_Dec_21_1422,exp,2021.2.3,60.025817531305904,
right,stop,2,0,2,0,5,2,32,5,898.6686701774597,None,1,0.16571593284606934,898.6686701774597,None,898.9627370834351,None,899.967276096344,900.3389790058136,899.967276096344,900.3389790058136,898.9627370834351,None,898.9627370834351,None,898.9627370834351,None,200,200,0,True,314.4335746765137,449.25427436828613,right,901.6337821483612,None,pp_05,icub,clamp,2021_Dec_21_1422,exp,2021.2.3,60.025817531305904,
left,go,2,0,2,0,5,3,33,0,902.1488971710205,None,1,0.23327088356018066,902.1488971710205,None,902.5058350563049,None,903.501638174057,903.8509271144867,903.501638174057,903.8509271144867,902.5058350563049,None,902.5058350563049,None,902.5058350563049,None,-1,-1,1,True,283.4582328796387,443.279504776001,left,905.1418859958649,None,pp_05,icub,clamp,2021_Dec_21_1422,exp,2021.2.3,60.025817531305904,
right,go,2,0,2,0,5,4,34,3,905.6430721282959,None,1,0.24996495246887207,905.6430721282959,None,906.0038299560547,None,907.0120420455933,907.3679850101471,907.0120420455933,907.3679850101471,906.0038299560547,None,906.0038299560547,None,906.0038299560547,None,-1,-1,1,True,211.5767002105713,467.65637397766113,right,908.5755560398102,None,pp_05,icub,clamp,2021_Dec_21_1422,exp,2021.2.3,60.025817531305904,
right,go,2,0,2,0,5,5,35,4,909.079108953476,None,1,0.2023639678955078,909.079108953476,None,909.3720970153809,None,910.376049041748,910.7383620738983,910.376049041748,910.7383620738983,909.3720970153809,None,909.3720970153809,None,909.3720970153809,None,-1,-1,1,True,285.2346897125244,488.48772048950195,right,912.0435099601746,None,pp_05,icub,clamp,2021_Dec_21_1422,exp,2021.2.3,60.025817531305904,
right,stop,2,0,2,0,6,0,36,5,912.5607781410217,None,1,0.2553088665008545,912.5607781410217,None,912.9168109893799,None,913.952418088913,914.3186671733856,913.952418088913,914.3186671733856,912.9168109893799,None,912.9168109893799,None,912.9168109893799,None,200,150,0,True,230.04913330078125,455.6610584259033,right,915.4884030818939,None,pp_05,icub,clamp,2021_Dec_21_1422,exp,2021.2.3,60.025817531305904,
left,stop,2,0,2,0,6,1,37,2,915.993250131607,None,1,0.22893786430358887,915.993250131607,None,916.3509809970856,None,917.3592150211334,917.7079260349274,917.3592150211334,917.7079260349274,916.3509809970856,None,916.3509809970856,None,916.3509809970856,None,200,100,0,True,331.3758373260498,564.2790794372559,left,919.1330480575562,None,pp_05,icub,clamp,2021_Dec_21_1422,exp,2021.2.3,60.025817531305904,
right,go,2,0,2,0,6,2,38,4,919.6655550003052,None,1,1.8792400360107422,919.6655550003052,None,921.6356229782104,None,922.6398990154266,922.9850151538849,922.6398990154266,922.9850151538849,921.6356229782104,None,921.6356229782104,None,921.6356229782104,None,-1,-1,1,True,380.5966377258301,575.1090049743652,right,924.5004110336304,None,pp_05,icub,clamp,2021_Dec_21_1422,exp,2021.2.3,60.025817531305904,
left,go,2,0,2,0,6,3,39,0,925.0066771507263,None,1,0.14937496185302734,925.0066771507263,None,925.2412230968475,None,926.2530269622803,926.6110379695892,926.2530269622803,926.6110379695892,925.2412230968475,None,925.2412230968475,None,925.2412230968475,None,-1,-1,1,True,338.49406242370605,474.0433692932129,left,927.9469261169434,None,pp_05,icub,clamp,2021_Dec_21_1422,exp,2021.2.3,60.025817531305904,
left,go,2,0,2,0,6,4,40,0,928.482253074646,None,1,0.3407108783721924,928.482253074646,None,928.9039850234985,None,929.9010620117188,930.2486891746521,929.9010620117188,930.2486891746521,928.9039850234985,None,928.9039850234985,None,928.9039850234985,None,-1,-1,1,True,322.1421241760254,540.0002002716064,left,931.6427080631256,None,pp_05,icub,clamp,2021_Dec_21_1422,exp,2021.2.3,60.025817531305904,
left,go,2,0,2,0,6,5,41,1,932.1565980911255,None,1,0.15520095825195312,932.1565980911255,None,932.3922801017761,None,933.3871619701385,933.7546210289001,933.3871619701385,933.7546210289001,932.3922801017761,None,932.3922801017761,None,932.3922801017761,None,-1,-1,1,True,400.06208419799805,521.242618560791,left,935.2092771530151,None,pp_05,icub,clamp,2021_Dec_21_1422,exp,2021.2.3,60.025817531305904,
right,go,2,0,2,0,7,0,42,3,935.7308831214905,None,1,0.20029187202453613,935.7308831214905,None,936.0266389846802,None,937.0478730201721,937.415568113327,937.0478730201721,937.415568113327,936.0266389846802,None,936.0266389846802,None,936.0266389846802,None,-1,-1,1,True,363.3108139038086,449.5251178741455,right,938.7186789512634,None,pp_05,icub,clamp,2021_Dec_21_1422,exp,2021.2.3,60.025817531305904,
right,stop,2,0,2,0,7,1,43,5,939.2281010150909,None,1,0.14230084419250488,939.2281010150909,None,939.4603199958801,None,940.4681270122528,940.8210680484772,940.4681270122528,940.8210680484772,939.4603199958801,None,939.4603199958801,None,939.4603199958801,None,150,100,0,True,298.17748069763184,477.8573513031006,right,942.1335790157318,None,pp_05,icub,clamp,2021_Dec_21_1422,exp,2021.2.3,60.025817531305904,
right,go,2,0,2,0,7,2,44,3,942.6447560787201,None,1,0.45943284034729004,942.6447560787201,None,943.1895520687103,None,944.1979789733887,944.5346310138702,944.1979789733887,944.5346310138702,943.1895520687103,None,943.1895520687103,None,943.1895520687103,None,-1,-1,1,True,441.4992332458496,445.3778266906738,right,945.9525861740112,None,pp_05,icub,clamp,2021_Dec_21_1422,exp,2021.2.3,60.025817531305904,
right,go,2,0,2,0,7,3,45,4,946.4753041267395,None,1,0.29157114028930664,946.4753041267395,None,946.890200138092,None,947.8910181522369,948.2525420188904,947.8910181522369,948.2525420188904,946.890200138092,None,946.890200138092,None,946.890200138092,None,-1,-1,1,True,532.3669910430908,444.91124153137207,right,949.7597019672394,None,pp_05,icub,clamp,2021_Dec_21_1422,exp,2021.2.3,60.025817531305904,
right,go,2,0,2,0,7,4,46,4,950.2774081230164,None,1,0.18165898323059082,950.2774081230164,None,950.5742609500885,None,951.5692720413208,951.9234659671783,951.5692720413208,951.9234659671783,950.5742609500885,None,950.5742609500885,None,950.5742609500885,None,-1,-1,1,True,358.0615520477295,501.91593170166016,right,953.3154239654541,None,pp_05,icub,clamp,2021_Dec_21_1422,exp,2021.2.3,60.025817531305904,
right,stop,2,0,2,0,7,5,47,5,953.8486740589142,None,1,0.2728230953216553,953.8486740589142,None,954.2070000171661,None,955.2325229644775,955.5777721405029,955.2325229644775,955.5777721405029,954.2070000171661,None,954.2070000171661,None,954.2070000171661,None,150,50,0,True,395.34974098205566,511.6393566131592,right,957.0045540332794,None,pp_05,icub,clamp,2021_Dec_21_1422,exp,2021.2.3,60.025817531305904,
right,stop,2,0,2,0,8,0,48,5,957.5068199634552,None,1,0.8633360862731934,957.5068199634552,None,958.4862110614777,None,959.4840531349182,959.8431420326233,959.4840531349182,959.8431420326233,958.4862110614777,None,958.4862110614777,None,958.4862110614777,None,150,0,1,True,347.6593494415283,-1.0,-1,963.7358191013336,None,pp_05,icub,clamp,2021_Dec_21_1422,exp,2021.2.3,60.025817531305904,
right,stop,2,0,2,0,8,1,49,5,964.2336890697479,None,1,1.0467989444732666,964.2336890697479,None,965.4095010757446,None,966.3834180831909,966.7434160709381,966.3834180831909,966.7434160709381,965.4095010757446,None,965.4095010757446,None,965.4095010757446,None,150,50,1,True,227.4775505065918,-1.0,-1,970.5309641361237,None,pp_05,icub,clamp,2021_Dec_21_1422,exp,2021.2.3,60.025817531305904,
right,go,2,0,2,0,8,2,50,4,971.0289599895477,None,1,1.4284439086914062,971.0289599895477,None,972.5784661769867,None,973.5807981491089,973.9298350811005,973.5807981491089,973.9298350811005,972.5784661769867,None,972.5784661769867,None,972.5784661769867,None,-1,-1,1,True,458.18638801574707,416.22400283813477,right,975.3387711048126,None,pp_05,icub,clamp,2021_Dec_21_1422,exp,2021.2.3,60.025817531305904,
left,stop,2,0,2,0,8,3,51,2,975.8405120372772,None,1,0.1908738613128662,975.8405120372772,None,976.1207180023193,None,977.1471819877625,977.5028431415558,977.1471819877625,977.5028431415558,976.1207180023193,None,976.1207180023193,None,976.1207180023193,None,150,100,1,True,326.6878128051758,-1.0,-1,981.3576331138611,None,pp_05,icub,clamp,2021_Dec_21_1422,exp,2021.2.3,60.025817531305904,
left,go,2,0,2,0,8,4,52,0,981.856742143631,None,1,0.7126820087432861,981.856742143631,None,982.6598169803619,None,983.6385300159454,984.0008420944214,983.6385300159454,984.0008420944214,982.6598169803619,None,982.6598169803619,None,982.6598169803619,None,-1,-1,1,True,294.9347496032715,463.00745010375977,left,985.2893719673157,None,pp_05,icub,clamp,2021_Dec_21_1422,exp,2021.2.3,60.025817531305904,
right,go,2,0,2,0,8,5,53,3,985.8002450466156,None,1,0.13890695571899414,985.8002450466156,None,986.034893989563,None,987.0590169429779,987.3969509601593,987.0590169429779,987.3969509601593,986.034893989563,None,986.034893989563,None,986.034893989563,None,-1,-1,1,True,351.2704372406006,444.8091983795166,right,988.7330131530762,None,pp_05,icub,clamp,2021_Dec_21_1422,exp,2021.2.3,60.025817531305904,
left,go,2,0,2,0,9,0,54,0,989.2602090835571,None,1,0.06347799301147461,989.2602090835571,None,989.4275541305542,None,990.43612408638,990.7946031093597,990.43612408638,990.7946031093597,989.4275541305542,None,989.4275541305542,None,989.4275541305542,None,-1,-1,1,True,337.4903202056885,468.10412406921387,left,992.1203601360321,None,pp_05,icub,clamp,2021_Dec_21_1422,exp,2021.2.3,60.025817531305904,
left,stop,2,0,2,0,9,1,55,2,992.6257009506226,None,1,0.14051008224487305,992.6257009506226,None,992.8551840782166,None,993.8597259521484,994.213837146759,993.8597259521484,994.213837146759,992.8551840782166,None,992.8551840782166,None,992.8551840782166,None,200,100,1,True,308.0577850341797,-1.0,-1,998.060033082962,None,pp_05,icub,clamp,2021_Dec_21_1422,exp,2021.2.3,60.025817531305904,
left,go,2,0,2,0,9,2,56,1,998.5576369762421,None,1,0.6307578086853027,998.5576369762421,None,999.2975399494171,None,1000.2786791324615,1000.6288120746613,1000.2786791324615,1000.6288120746613,999.2975399494171,None,999.2975399494171,None,999.2975399494171,None,-1,-1,1,True,310.3680610656738,596.8842506408691,left,1002.0839071273804,None,pp_05,icub,clamp,2021_Dec_21_1422,exp,2021.2.3,60.025817531305904,
right,stop,2,0,2,0,9,3,57,5,1002.5859589576721,None,1,0.25116586685180664,1002.5859589576721,None,1002.9436769485474,None,1003.9478869438171,1004.2999610900879,1003.9478869438171,1004.2999610900879,1002.9436769485474,None,1002.9436769485474,None,1002.9436769485474,None,250,100,1,True,302.978515625,-1.0,-1,1008.137365102768,None,pp_05,icub,clamp,2021_Dec_21_1422,exp,2021.2.3,60.025817531305904,
left,go,2,0,2,0,9,4,58,1,1008.6333220005035,None,1,1.3809609413146973,1008.6333220005035,None,1010.1218690872192,None,1011.0973150730133,1011.4558291435242,1011.0973150730133,1011.4558291435242,1010.1218690872192,None,1010.1218690872192,None,1010.1218690872192,None,-1,-1,1,True,344.64406967163086,700.0741958618164,left,1013.0591189861298,None,pp_05,icub,clamp,2021_Dec_21_1422,exp,2021.2.3,60.025817531305904,
left,stop,2,0,2,0,9,5,59,2,1013.5674431324005,None,1,0.24937200546264648,1013.5674431324005,None,1013.9223999977112,None,1014.933424949646,1015.2869641780853,1014.933424949646,1015.2869641780853,1013.9223999977112,None,1013.9223999977112,None,1013.9223999977112,None,250,150,1,True,485.37135124206543,-1.0,-1,1019.300843000412,None,pp_05,icub,clamp,2021_Dec_21_1422,exp,2021.2.3,60.025817531305904,
right,go,2,0,2,0,10,0,60,4,1019.7999200820923,None,1,0.6263511180877686,1019.7999200820923,None,1020.5400669574738,None,1021.5114710330963,1021.8591101169586,1021.5114710330963,1021.8591101169586,1020.5400669574738,None,1020.5400669574738,None,1020.5400669574738,None,-1,-1,1,True,472.93877601623535,434.40985679626465,right,1023.3303489685059,None,pp_05,icub,clamp,2021_Dec_21_1422,exp,2021.2.3,60.025817531305904,
left,go,2,0,2,0,10,1,61,0,1023.8448240756989,None,1,0.18494606018066406,1023.8448240756989,None,1024.1398270130157,None,1025.1413490772247,1025.497516155243,1025.1413490772247,1025.497516155243,1024.1398270130157,None,1024.1398270130157,None,1024.1398270130157,None,-1,-1,1,True,295.3612804412842,553.0655384063721,left,1026.8738811016083,None,pp_05,icub,clamp,2021_Dec_21_1422,exp,2021.2.3,60.025817531305904,
left,stop,2,0,2,0,10,2,62,2,1027.3881940841675,None,1,0.259472131729126,1027.3881940841675,None,1027.7486391067505,None,1028.746113061905,1029.088329076767,1028.746113061905,1029.088329076767,1027.7486391067505,None,1027.7486391067505,None,1027.7486391067505,None,300,150,1,True,157.7439308166504,-1.0,-1,1032.8183879852295,None,pp_05,icub,clamp,2021_Dec_21_1422,exp,2021.2.3,60.025817531305904,
right,go,2,0,2,0,10,3,63,3,1033.3168230056763,None,1,0.7374050617218018,1033.3168230056763,None,1034.1817350387573,None,1035.1573259830475,1035.505234003067,1035.1573259830475,1035.505234003067,1034.1817350387573,None,1034.1817350387573,None,1034.1817350387573,None,-1,-1,1,True,282.59992599487305,445.36519050598145,right,1036.80153799057,None,pp_05,icub,clamp,2021_Dec_21_1422,exp,2021.2.3,60.025817531305904,
left,stop,2,0,2,0,10,4,64,2,1037.3205771446228,None,1,0.23694396018981934,1037.3205771446228,None,1037.6774380207062,None,1038.6799790859222,1039.0254580974579,1038.6799790859222,1039.0254580974579,1037.6774380207062,None,1037.6774380207062,None,1037.6774380207062,None,350,150,0,True,490.74387550354004,572.6170539855957,left,1040.647535085678,None,pp_05,icub,clamp,2021_Dec_21_1422,exp,2021.2.3,60.025817531305904,
right,stop,2,0,2,0,10,5,65,5,1041.1626830101013,None,1,0.10471105575561523,1041.1626830101013,None,1041.3961420059204,None,1042.421851158142,1042.7462739944458,1042.421851158142,1042.7462739944458,1041.3961420059204,None,1041.3961420059204,None,1041.3961420059204,None,300,150,1,True,340.09838104248047,-1.0,-1,1046.6246709823608,None,pp_05,icub,clamp,2021_Dec_21_1422,exp,2021.2.3,60.025817531305904,
right,go,2,0,2,0,11,0,66,3,1047.1169500350952,None,1,0.7532839775085449,1047.1169500350952,None,1047.9808430671692,None,1048.967127084732,1049.3145699501038,1048.967127084732,1049.3145699501038,1047.9808430671692,None,1047.9808430671692,None,1047.9808430671692,None,-1,-1,1,True,367.8584098815918,497.10869789123535,right,1050.744204044342,None,pp_05,icub,clamp,2021_Dec_21_1422,exp,2021.2.3,60.025817531305904,
right,go,2,0,2,0,11,1,67,4,1051.2491199970245,None,1,0.2204148769378662,1051.2491199970245,None,1051.5451600551605,None,1052.5593881607056,1052.918517112732,1052.5593881607056,1052.918517112732,1051.5451600551605,None,1051.5451600551605,None,1051.5451600551605,None,-1,-1,1,True,415.04383087158203,475.0096797943115,right,1054.3229911327362,None,pp_05,icub,clamp,2021_Dec_21_1422,exp,2021.2.3,60.025817531305904,
left,go,2,0,2,0,11,2,68,1,1054.84543800354,None,1,0.25629520416259766,1054.84543800354,None,1055.203068971634,None,1056.1997599601746,1056.5496711730957,1056.1997599601746,1056.5496711730957,1055.203068971634,None,1055.203068971634,None,1055.203068971634,None,-1,-1,1,True,335.70241928100586,571.8100070953369,left,1058.002434015274,None,pp_05,icub,clamp,2021_Dec_21_1422,exp,2021.2.3,60.025817531305904,
right,go,2,0,2,0,11,3,69,3,1058.5123100280762,None,1,0.2593710422515869,1058.5123100280762,None,1058.8688509464264,None,1059.8932001590729,1060.2460870742798,1059.8932001590729,1060.2460870742798,1058.8688509464264,None,1058.8688509464264,None,1058.8688509464264,None,-1,-1,1,True,250.90646743774414,536.0958576202393,right,1061.5577111244202,None,pp_05,icub,clamp,2021_Dec_21_1422,exp,2021.2.3,60.025817531305904,
right,stop,2,0,2,0,11,4,70,5,1062.0722670555115,None,1,0.12434816360473633,1062.0722670555115,None,1062.3071739673615,None,1063.3264470100403,1063.6727731227875,1063.3264470100403,1063.6727731227875,1062.3071739673615,None,1062.3071739673615,None,1062.3071739673615,None,300,200,1,True,255.03849983215332,-1.0,-1,1067.4504680633545,None,pp_05,icub,clamp,2021_Dec_21_1422,exp,2021.2.3,60.025817531305904,
left,stop,2,0,2,0,11,5,71,2,1067.9473690986633,None,1,0.5888609886169434,1067.9473690986633,None,1068.6253011226654,None,1069.6070330142975,1069.9596180915833,1069.6070330142975,1069.9596180915833,1068.6253011226654,None,1068.6253011226654,None,1068.6253011226654,None,300,250,1,True,268.6154842376709,-1.0,-1,1073.7977640628815,None,pp_05,icub,clamp,2021_Dec_21_1422,exp,2021.2.3,60.025817531305904,
right,go,2,0,2,0,12,0,72,4,1074.2969901561737,None,1,0.5911970138549805,1074.2969901561737,None,1074.9763979911804,None,1075.986587047577,1076.3307690620422,1075.986587047577,1076.3307690620422,1074.9763979911804,None,1074.9763979911804,None,1074.9763979911804,None,-1,-1,1,True,371.945858001709,551.9297122955322,right,1077.7813849449158,None,pp_05,icub,clamp,2021_Dec_21_1422,exp,2021.2.3,60.025817531305904,
right,stop,2,0,2,0,12,1,73,5,1078.3110070228577,None,1,0.08069419860839844,1078.3110070228577,None,1078.4821891784668,None,1079.5159780979156,1079.842082977295,1079.5159780979156,1079.842082977295,1078.4821891784668,None,1078.4821891784668,None,1078.4821891784668,None,350,250,1,True,304.0642738342285,-1.0,-1,1083.6826300621033,None,pp_05,icub,clamp,2021_Dec_21_1422,exp,2021.2.3,60.025817531305904,
left,stop,2,0,2,0,12,2,74,2,1084.1799020767212,None,1,0.7401971817016602,1084.1799020767212,None,1085.045557975769,None,1086.028527021408,1086.3890390396118,1086.028527021408,1086.3890390396118,1085.045557975769,None,1085.045557975769,None,1085.045557975769,None,350,300,0,True,348.39558601379395,459.5012664794922,left,1087.725312948227,None,pp_05,icub,clamp,2021_Dec_21_1422,exp,2021.2.3,60.025817531305904,
right,go,2,0,2,0,12,3,75,3,1088.2446610927582,None,1,0.07303309440612793,1088.2446610927582,None,1088.4187350273132,None,1089.4436299800873,1089.7999260425568,1089.4436299800873,1089.7999260425568,1088.4187350273132,None,1088.4187350273132,None,1088.4187350273132,None,-1,-1,1,True,390.3312683105469,519.4141864776611,right,1091.2451031208038,None,pp_05,icub,clamp,2021_Dec_21_1422,exp,2021.2.3,60.025817531305904,
right,stop,2,0,2,0,12,4,76,5,1091.7468099594116,None,1,0.20488810539245605,1091.7468099594116,None,1092.0363900661469,None,1093.0716860294342,1093.4273850917816,1093.0716860294342,1093.4273850917816,1092.0363900661469,None,1092.0363900661469,None,1092.0363900661469,None,300,300,1,True,324.30195808410645,-1.0,-1,1097.244630098343,None,pp_05,icub,clamp,2021_Dec_21_1422,exp,2021.2.3,60.025817531305904,
left,stop,2,0,2,0,12,5,77,2,1097.742478132248,None,1,0.9096732139587402,1097.742478132248,None,1098.7324559688568,None,1099.7149381637573,1100.0644991397858,1099.7149381637573,1100.0644991397858,1098.7324559688568,None,1098.7324559688568,None,1098.7324559688568,None,300,350,1,True,415.74573516845703,-1.0,-1,1104.0166189670563,None,pp_05,icub,clamp,2021_Dec_21_1422,exp,2021.2.3,60.025817531305904,
right,go,3,0,3,0,0,0,0,3,1122.3586311340332,None,1,8.085880041122437,1122.3586311340332,None,1130.5455441474915,None,1131.539852142334,1131.9025511741638,1131.539852142334,1131.9025511741638,1130.5455441474915,None,1130.5455441474915,None,1130.5455441474915,None,-1,-1,1,True,329.9887180328369,524.5664119720459,right,1133.281095981598,None,pp_05,icub,clamp,2021_Dec_21_1422,exp,2021.2.3,60.025817531305904,
right,stop,3,0,3,0,0,1,1,5,1133.8171010017395,None,1,0.7783370018005371,1133.8171010017395,None,1134.6706840991974,None,1135.663113117218,1136.012276172638,1135.663113117218,1136.012276172638,1134.6706840991974,None,1134.6706840991974,None,1134.6706840991974,None,350,350,1,True,385.30588150024414,-1.0,-1,1139.9662189483643,None,pp_05,icub,clamp,2021_Dec_21_1422,exp,2021.2.3,60.025817531305904,
left,go,3,0,3,0,0,2,2,0,1140.4642360210419,None,1,0.8487591743469238,1140.4642360210419,None,1141.4534931182861,None,1142.4344310760498,1142.792839050293,1142.4344310760498,1142.792839050293,1141.4534931182861,None,1141.4534931182861,None,1141.4534931182861,None,-1,-1,1,True,352.44226455688477,770.2836990356445,left,1144.4437539577484,None,pp_05,icub,clamp,2021_Dec_21_1422,exp,2021.2.3,60.025817531305904,
left,stop,3,0,3,0,0,3,3,2,1144.9644920825958,None,1,0.40006089210510254,1144.9644920825958,None,1145.4451069831848,None,1146.467383146286,1146.8094770908356,1146.467383146286,1146.8094770908356,1145.4451069831848,None,1145.4451069831848,None,1145.4451069831848,None,350,400,1,True,354.13503646850586,-1.0,-1,1150.67312002182,None,pp_05,icub,clamp,2021_Dec_21_1422,exp,2021.2.3,60.025817531305904,
left,go,3,0,3,0,0,4,4,1,1151.170981168747,None,1,0.8009669780731201,1151.170981168747,None,1152.099473953247,None,1153.0703461170197,1153.4190831184387,1153.0703461170197,1153.4190831184387,1152.099473953247,None,1152.099473953247,None,1152.099473953247,None,-1,-1,1,True,350.30150413513184,679.6679496765137,left,1155.017655134201,None,pp_05,icub,clamp,2021_Dec_21_1422,exp,2021.2.3,60.025817531305904,
left,stop,3,0,3,0,0,5,5,2,1155.5485479831696,None,1,0.3192269802093506,1155.5485479831696,None,1155.9672319889069,None,1156.965898990631,1157.3217070102692,1156.965898990631,1157.3217070102692,1155.9672319889069,None,1155.9672319889069,None,1155.9672319889069,None,400,400,1,True,363.15417289733887,-1.0,-1,1161.2159509658813,None,pp_05,icub,clamp,2021_Dec_21_1422,exp,2021.2.3,60.025817531305904,
left,stop,3,0,3,0,1,0,6,2,1161.713788986206,None,1,0.7511258125305176,1161.713788986206,None,1162.580127954483,None,1163.5856561660767,1163.9449110031128,1163.5856561660767,1163.9449110031128,1162.580127954483,None,1162.580127954483,None,1162.580127954483,None,450,400,0,True,357.3019504547119,547.1668243408203,left,1165.3805849552155,None,pp_05,icub,clamp,2021_Dec_21_1422,exp,2021.2.3,60.025817531305904,
right,go,3,0,3,0,1,1,7,4,1165.8976211547852,None,1,0.17846298217773438,1165.8976211547852,None,1166.1790211200714,None,1167.1761679649353,1167.5284600257874,1167.1761679649353,1167.5284600257874,1166.1790211200714,None,1166.1790211200714,None,1166.1790211200714,None,-1,-1,1,True,303.5261631011963,478.25026512145996,right,1168.849818944931,None,pp_05,icub,clamp,2021_Dec_21_1422,exp,2021.2.3,60.025817531305904,
left,stop,3,0,3,0,1,2,8,2,1169.3710701465607,None,1,0.3053278923034668,1169.3710701465607,None,1169.790645122528,None,1170.808256149292,1171.1698999404907,1170.808256149292,1171.1698999404907,1169.790645122528,None,1169.790645122528,None,1169.790645122528,None,400,400,0,True,295.31145095825195,561.4104270935059,left,1172.5628390312195,None,pp_05,icub,clamp,2021_Dec_21_1422,exp,2021.2.3,60.025817531305904,
right,go,3,0,3,0,1,3,9,4,1173.095489025116,None,1,0.17274904251098633,1173.095489025116,None,1173.3873541355133,None,1174.39009308815,1174.7353420257568,1174.39009308815,1174.7353420257568,1173.3873541355133,None,1173.3873541355133,None,1173.3873541355133,None,-1,-1,1,True,308.9020252227783,478.7297248840332,right,1176.0598649978638,None,pp_05,icub,clamp,2021_Dec_21_1422,exp,2021.2.3,60.025817531305904,
right,go,3,0,3,0,1,4,10,4,1176.5794060230255,None,1,0.39284205436706543,1176.5794060230255,None,1177.0587430000305,None,1178.0685379505157,1178.4129271507263,1178.0685379505157,1178.4129271507263,1177.0587430000305,None,1177.0587430000305,None,1177.0587430000305,None,-1,-1,1,True,347.93996810913086,483.0639362335205,right,1179.7738990783691,None,pp_05,icub,clamp,2021_Dec_21_1422,exp,2021.2.3,60.025817531305904,
left,go,3,0,3,0,1,5,11,1,1180.2889971733093,None,1,0.3117079734802246,1180.2889971733093,None,1180.7118911743164,None,1181.7403421401978,1182.1027779579163,1181.7403421401978,1182.1027779579163,1180.7118911743164,None,1180.7118911743164,None,1180.7118911743164,None,-1,-1,1,True,385.04552841186523,595.4117774963379,left,1183.5688321590424,None,pp_05,icub,clamp,2021_Dec_21_1422,exp,2021.2.3,60.025817531305904,
