Holder,Action,blocks.thisRepN,blocks.thisTrialN,blocks.thisN,blocks.thisIndex,trials.thisRepN,trials.thisTrialN,trials.thisN,trials.thisIndex,start_msg.started,start_msg.stopped,RespButton_start_trial.keys,RespButton_start_trial.rt,RespButton_start_trial.started,RespButton_start_trial.stopped,GREEN.started,GREEN.stopped,LEFT_RED.started,LEFT_RED.stopped,RIGHT_RED.started,RIGHT_RED.stopped,LEFT_CIRCLE.started,LEFT_CIRCLE.stopped,CENTER_CIRCLE.started,CENTER_CIRCLE.stopped,RIGHT_CIRCLE.started,RIGHT_CIRCLE.stopped,SOUND_DELAY_MS_LEFT,SOUND_DELAY_MS_RIGHT,CORRECT,VALIDITY,RELEASE_TIME,TOUCH_TIME,BOTTLE_RESPONSE_POSITION,text.started,text.stopped,pid,left_position,right_position,date,expName,psychopyVersion,frameRate,
left,stop,0,0,0,0,0,0,0,2,62.00965690612793,None,1,56.064404010772705,62.00965690612793,None,118.17528200149536,None,119.20776605606079,119.56874489784241,119.20776605606079,119.56874489784241,118.17528200149536,None,118.17528200149536,None,118.17528200149536,None,500,500,0,True,419.7559356689453,526.9765853881836,left,121.0365960597992,None,pp_08,icub,clamp,2021_Dec_22_0918,exp,2021.2.3,59.92650462632231,
left,go,0,0,0,0,0,1,1,1,121.55489110946655,None,1,0.6976439952850342,121.55489110946655,None,122.34333896636963,None,123.36890411376953,123.73233795166016,123.36890411376953,123.73233795166016,122.34333896636963,None,122.34333896636963,None,122.34333896636963,None,-1,-1,1,True,253.63731384277344,456.207275390625,left,124.93684697151184,None,pp_08,icub,clamp,2021_Dec_22_0918,exp,2021.2.3,59.92650462632231,
right,stop,0,0,0,0,0,2,2,5,125.44300603866577,None,1,0.4241480827331543,125.44300603866577,None,125.98681712150574,None,127.01143407821655,127.37372493743896,127.01143407821655,127.37372493743896,125.98681712150574,None,125.98681712150574,None,125.98681712150574,None,450,500,0,True,278.2139778137207,431.49805068969727,right,128.59721302986145,None,pp_08,icub,clamp,2021_Dec_22_0918,exp,2021.2.3,59.92650462632231,
right,go,0,0,0,0,0,3,3,3,129.11148309707642,None,1,0.3756258487701416,129.11148309707642,None,129.59223103523254,None,130.58696389198303,130.92799401283264,130.58696389198303,130.92799401283264,129.59223103523254,None,129.59223103523254,None,129.59223103523254,None,-1,-1,1,True,242.4921989440918,362.0903491973877,right,132.10111498832703,None,pp_08,icub,clamp,2021_Dec_22_0918,exp,2021.2.3,59.92650462632231,
left,go,0,0,0,0,0,4,4,0,132.62006998062134,None,1,0.44418811798095703,132.62006998062134,None,133.1501820087433,None,134.16662788391113,134.51910710334778,134.16662788391113,134.51910710334778,133.1501820087433,None,133.1501820087433,None,133.1501820087433,None,-1,-1,1,True,279.2665958404541,377.18677520751953,left,135.70371007919312,None,pp_08,icub,clamp,2021_Dec_22_0918,exp,2021.2.3,59.92650462632231,
left,go,0,0,0,0,0,5,5,1,136.20178699493408,None,1,0.2535548210144043,136.20178699493408,None,136.54664611816406,None,137.56621503829956,137.91121292114258,137.56621503829956,137.91121292114258,136.54664611816406,None,136.54664611816406,None,136.54664611816406,None,-1,-1,1,True,284.8067283630371,351.470947265625,left,139.06760501861572,None,pp_08,icub,clamp,2021_Dec_22_0918,exp,2021.2.3,59.92650462632231,
right,go,0,0,0,0,1,0,6,3,139.57614994049072,None,1,0.2875630855560303,139.57614994049072,None,139.99212789535522,None,141.01686191558838,141.3759229183197,141.01686191558838,141.3759229183197,139.99212789535522,None,139.99212789535522,None,139.99212789535522,None,-1,-1,1,True,281.3904285430908,363.0845546722412,right,142.5414559841156,None,pp_08,icub,clamp,2021_Dec_22_0918,exp,2021.2.3,59.92650462632231,
right,stop,0,0,0,0,1,1,7,5,143.05510306358337,None,1,0.3009049892425537,143.05510306358337,None,143.47518801689148,None,144.48625111579895,144.85020804405212,144.48625111579895,144.85020804405212,143.47518801689148,None,143.47518801689148,None,143.47518801689148,None,450,450,0,True,275.6228446960449,399.83367919921875,right,146.06116604804993,None,pp_08,icub,clamp,2021_Dec_22_0918,exp,2021.2.3,59.92650462632231,
right,stop,0,0,0,0,1,2,8,5,146.57466101646423,None,1,0.247467041015625,146.57466101646423,None,146.93210101127625,None,147.96203303337097,148.31873989105225,147.96203303337097,148.31873989105225,146.93210101127625,None,146.93210101127625,None,146.93210101127625,None,450,400,0,True,231.44245147705078,375.873327255249,right,149.44886207580566,None,pp_08,icub,clamp,2021_Dec_22_0918,exp,2021.2.3,59.92650462632231,
right,go,0,0,0,0,1,3,9,3,149.968435049057,None,1,0.2397150993347168,149.968435049057,None,150.32780289649963,None,151.34675693511963,151.70147490501404,151.34675693511963,151.70147490501404,150.32780289649963,None,150.32780289649963,None,150.32780289649963,None,-1,-1,1,True,253.5538673400879,365.1232719421387,right,152.85230493545532,None,pp_08,icub,clamp,2021_Dec_22_0918,exp,2021.2.3,59.92650462632231,
right,go,0,0,0,0,1,4,10,4,153.37110495567322,None,1,0.26767396926879883,153.37110495567322,None,153.72912001609802,None,154.73654794692993,155.08748602867126,154.73654794692993,155.08748602867126,153.72912001609802,None,153.72912001609802,None,153.72912001609802,None,-1,-1,1,True,239.5040988922119,344.30885314941406,right,156.21033692359924,None,pp_08,icub,clamp,2021_Dec_22_0918,exp,2021.2.3,59.92650462632231,
left,go,0,0,0,0,1,5,11,1,156.70786905288696,None,1,0.22940921783447266,156.70786905288696,None,157.06088209152222,None,158.07353401184082,158.43195509910583,158.07353401184082,158.43195509910583,157.06088209152222,None,157.06088209152222,None,157.06088209152222,None,-1,-1,1,True,119.64917182922363,327.53825187683105,left,159.39924502372742,None,pp_08,icub,clamp,2021_Dec_22_0918,exp,2021.2.3,59.92650462632231,
left,go,0,0,0,0,2,0,12,1,159.91844606399536,None,1,0.2813389301300049,159.91844606399536,None,160.32330298423767,None,161.34783101081848,161.7113869190216,161.34783101081848,161.7113869190216,160.32330298423767,None,160.32330298423767,None,160.32330298423767,None,-1,-1,1,True,276.8290042877197,394.96469497680664,left,162.86704397201538,None,pp_08,icub,clamp,2021_Dec_22_0918,exp,2021.2.3,59.92650462632231,
right,go,0,0,0,0,2,1,13,4,163.37964606285095,None,1,0.24199199676513672,163.37964606285095,None,163.736407995224,None,164.74157810211182,165.10741901397705,164.74157810211182,165.10741901397705,163.736407995224,None,163.736407995224,None,163.736407995224,None,-1,-1,1,True,555.0909042358398,323.5626220703125,right,166.51632404327393,None,pp_08,icub,clamp,2021_Dec_22_0918,exp,2021.2.3,59.92650462632231,
left,go,0,0,0,0,2,2,14,1,167.03664708137512,None,1,0.36299705505371094,167.03664708137512,None,167.51580905914307,None,168.5263159275055,168.85808491706848,168.5263159275055,168.85808491706848,167.51580905914307,None,167.51580905914307,None,167.51580905914307,None,-1,-1,1,True,299.31187629699707,439.6541118621826,left,170.14822101593018,None,pp_08,icub,clamp,2021_Dec_22_0918,exp,2021.2.3,59.92650462632231,
left,stop,0,0,0,0,2,3,15,2,170.6625111103058,None,1,0.26893091201782227,170.6625111103058,None,171.02192902565002,None,172.01577305793762,172.375559091568,172.01577305793762,172.375559091568,171.02192902565002,None,171.02192902565002,None,171.02192902565002,None,450,350,0,True,277.6782512664795,409.008264541626,left,173.59806299209595,None,pp_08,icub,clamp,2021_Dec_22_0918,exp,2021.2.3,59.92650462632231,
left,stop,0,0,0,0,2,4,16,2,174.11504888534546,None,1,0.48851895332336426,174.11504888534546,None,174.71808505058289,None,175.7390100955963,176.08226704597473,175.7390100955963,176.08226704597473,174.71808505058289,None,174.71808505058289,None,174.71808505058289,None,400,350,0,True,211.48347854614258,382.3971748352051,left,177.20704698562622,None,pp_08,icub,clamp,2021_Dec_22_0918,exp,2021.2.3,59.92650462632231,
left,go,0,0,0,0,2,5,17,0,177.7092409133911,None,1,0.28031396865844727,177.7092409133911,None,178.06502199172974,None,179.08860397338867,179.43342089653015,179.08860397338867,179.43342089653015,178.06502199172974,None,178.06502199172974,None,178.06502199172974,None,-1,-1,1,True,289.00647163391113,431.32591247558594,left,180.6863009929657,None,pp_08,icub,clamp,2021_Dec_22_0918,exp,2021.2.3,59.92650462632231,
left,stop,0,0,0,0,3,0,18,2,181.19962692260742,None,1,0.21695399284362793,181.19962692260742,None,181.49711203575134,None,182.48952794075012,182.83995008468628,182.48952794075012,182.83995008468628,181.49711203575134,None,181.49711203575134,None,181.49711203575134,None,350,350,0,True,279.6180248260498,384.5529556274414,left,184.0384750366211,None,pp_08,icub,clamp,2021_Dec_22_0918,exp,2021.2.3,59.92650462632231,
right,go,0,0,0,0,3,1,19,4,184.55402493476868,None,1,0.361422061920166,184.55402493476868,None,185.0336480140686,None,186.0303659439087,186.38214802742004,186.0303659439087,186.38214802742004,185.0336480140686,None,185.0336480140686,None,185.0336480140686,None,-1,-1,1,True,258.48865509033203,431.7026138305664,right,187.64028000831604,None,pp_08,icub,clamp,2021_Dec_22_0918,exp,2021.2.3,59.92650462632231,
right,go,0,0,0,0,3,2,20,4,188.15728211402893,None,1,0.1962571144104004,188.15728211402893,None,188.44509601593018,None,189.44740390777588,189.7938129901886,189.44740390777588,189.7938129901886,188.44509601593018,None,188.44509601593018,None,188.44509601593018,None,-1,-1,1,True,226.00364685058594,383.7859630584717,right,190.96407794952393,None,pp_08,icub,clamp,2021_Dec_22_0918,exp,2021.2.3,59.92650462632231,
left,go,0,0,0,0,3,3,21,1,191.47721099853516,None,1,0.27124619483947754,191.47721099853516,None,191.83374404907227,None,192.84978795051575,193.21081805229187,192.84978795051575,193.21081805229187,191.83374404907227,None,191.83374404907227,None,191.83374404907227,None,-1,-1,1,True,301.13768577575684,415.4858589172363,left,194.44945096969604,None,pp_08,icub,clamp,2021_Dec_22_0918,exp,2021.2.3,59.92650462632231,
left,go,0,0,0,0,3,4,22,1,194.9509150981903,None,1,0.22442102432250977,194.9509150981903,None,195.30280590057373,None,196.32208395004272,196.67419600486755,196.32208395004272,196.67419600486755,195.30280590057373,None,195.30280590057373,None,195.30280590057373,None,-1,-1,1,True,304.6841621398926,440.1679039001465,left,197.94648599624634,None,pp_08,icub,clamp,2021_Dec_22_0918,exp,2021.2.3,59.92650462632231,
left,go,0,0,0,0,3,5,23,0,198.46017789840698,None,1,0.09013986587524414,198.46017789840698,None,198.63063097000122,None,199.64404892921448,200.00469708442688,199.64404892921448,200.00469708442688,198.63063097000122,None,198.63063097000122,None,198.63063097000122,None,-1,-1,1,True,271.2109088897705,433.79759788513184,left,201.24003505706787,None,pp_08,icub,clamp,2021_Dec_22_0918,exp,2021.2.3,59.92650462632231,
left,stop,0,0,0,0,4,0,24,2,201.75774097442627,None,1,0.22954416275024414,201.75774097442627,None,202.11038494110107,None,203.14022994041443,203.48759698867798,203.14022994041443,203.48759698867798,202.11038494110107,None,202.11038494110107,None,202.11038494110107,None,300,350,0,True,270.63560485839844,370.99480628967285,left,204.6436369419098,None,pp_08,icub,clamp,2021_Dec_22_0918,exp,2021.2.3,59.92650462632231,
right,go,0,0,0,0,4,1,25,3,205.16393208503723,None,1,0.3056330680847168,205.16393208503723,None,205.5854959487915,None,206.6008698940277,206.94941210746765,206.6008698940277,206.94941210746765,205.5854959487915,None,205.5854959487915,None,205.5854959487915,None,-1,-1,1,True,217.63181686401367,350.48866271972656,right,208.0539960861206,None,pp_08,icub,clamp,2021_Dec_22_0918,exp,2021.2.3,59.92650462632231,
left,go,0,0,0,0,4,2,26,1,208.5796298980713,None,1,0.35088491439819336,208.5796298980713,None,209.05315494537354,None,210.0625410079956,210.41726207733154,210.0625410079956,210.41726207733154,209.05315494537354,None,209.05315494537354,None,209.05315494537354,None,-1,-1,1,True,291.395902633667,375.2756118774414,left,211.61618304252625,None,pp_08,icub,clamp,2021_Dec_22_0918,exp,2021.2.3,59.92650462632231,
left,stop,0,0,0,0,4,3,27,2,212.12319588661194,None,1,0.2211151123046875,212.12319588661194,None,212.42007088661194,None,213.44023895263672,213.8052089214325,213.44023895263672,213.8052089214325,212.42007088661194,None,212.42007088661194,None,212.42007088661194,None,250,350,0,True,284.63077545166016,374.2249011993408,left,214.99071502685547,None,pp_08,icub,clamp,2021_Dec_22_0918,exp,2021.2.3,59.92650462632231,
left,go,0,0,0,0,4,4,28,1,215.51162195205688,None,1,0.26370692253112793,215.51162195205688,None,215.86543798446655,None,216.88408088684082,217.23848295211792,216.88408088684082,217.23848295211792,215.86543798446655,None,215.86543798446655,None,215.86543798446655,None,-1,-1,1,True,282.04345703125,377.2709369659424,left,218.42355298995972,None,pp_08,icub,clamp,2021_Dec_22_0918,exp,2021.2.3,59.92650462632231,
right,stop,0,0,0,0,4,5,29,5,218.9422369003296,None,1,0.24993205070495605,218.9422369003296,None,219.29794692993164,None,220.3298900127411,220.67076206207275,220.3298900127411,220.67076206207275,219.29794692993164,None,219.29794692993164,None,219.29794692993164,None,200,350,0,True,275.0227451324463,328.30262184143066,right,221.7986319065094,None,pp_08,icub,clamp,2021_Dec_22_0918,exp,2021.2.3,59.92650462632231,
right,stop,0,0,0,0,5,0,30,5,222.3037109375,None,1,0.284639835357666,222.3037109375,None,222.6638720035553,None,223.66255497932434,224.00791096687317,223.66255497932434,224.00791096687317,222.6638720035553,None,222.6638720035553,None,222.6638720035553,None,200,300,0,True,271.49510383605957,365.0097846984863,right,225.1747031211853,None,pp_08,icub,clamp,2021_Dec_22_0918,exp,2021.2.3,59.92650462632231,
right,go,0,0,0,0,5,1,31,3,225.70046210289001,None,1,0.1707899570465088,225.70046210289001,None,225.99497509002686,None,227.0208020210266,227.37245106697083,227.0208020210266,227.37245106697083,225.99497509002686,None,225.99497509002686,None,225.99497509002686,None,-1,-1,1,True,169.2807674407959,340.53635597229004,right,228.41499495506287,None,pp_08,icub,clamp,2021_Dec_22_0918,exp,2021.2.3,59.92650462632231,
right,go,0,0,0,0,5,2,32,4,228.91489791870117,None,1,0.2592289447784424,228.91489791870117,None,229.27401494979858,None,230.27055311203003,230.62238311767578,230.27055311203003,230.62238311767578,229.27401494979858,None,229.27401494979858,None,229.27401494979858,None,-1,-1,1,True,273.9841938018799,426.5275001525879,right,231.8784999847412,None,pp_08,icub,clamp,2021_Dec_22_0918,exp,2021.2.3,59.92650462632231,
left,go,0,0,0,0,5,3,33,1,232.39868307113647,None,1,0.05350899696350098,232.39868307113647,None,232.57165908813477,None,233.58878302574158,233.95618510246277,233.58878302574158,233.95618510246277,232.57165908813477,None,232.57165908813477,None,232.57165908813477,None,-1,-1,1,True,314.06521797180176,366.36996269226074,left,235.12601804733276,None,pp_08,icub,clamp,2021_Dec_22_0918,exp,2021.2.3,59.92650462632231,
right,go,0,0,0,0,5,4,34,4,235.63134598731995,None,1,0.2847459316253662,235.63134598731995,None,236.04350090026855,None,237.05340003967285,237.4027020931244,237.05340003967285,237.4027020931244,236.04350090026855,None,236.04350090026855,None,236.04350090026855,None,-1,-1,1,True,282.9427719116211,440.31500816345215,right,238.65741801261902,None,pp_08,icub,clamp,2021_Dec_22_0918,exp,2021.2.3,59.92650462632231,
right,go,0,0,0,0,5,5,35,3,239.1685380935669,None,1,0.09379887580871582,239.1685380935669,None,239.3426320552826,None,240.34513401985168,240.70245099067688,240.34513401985168,240.70245099067688,239.3426320552826,None,239.3426320552826,None,239.3426320552826,None,-1,-1,1,True,239.08257484436035,411.8211269378662,right,241.88055992126465,None,pp_08,icub,clamp,2021_Dec_22_0918,exp,2021.2.3,59.92650462632231,
right,go,0,0,0,0,6,0,36,3,242.41242289543152,None,1,0.21062779426574707,242.41242289543152,None,242.69584393501282,None,243.709557056427,244.0620400905609,243.709557056427,244.0620400905609,242.69584393501282,None,242.69584393501282,None,242.69584393501282,None,-1,-1,1,True,312.3452663421631,453.5343647003174,right,245.34947299957275,None,pp_08,icub,clamp,2021_Dec_22_0918,exp,2021.2.3,59.92650462632231,
left,go,0,0,0,0,6,1,37,0,245.86853694915771,None,1,0.023370981216430664,245.86853694915771,None,245.97736406326294,None,246.96540093421936,247.3282699584961,246.96540093421936,247.3282699584961,245.97736406326294,None,245.97736406326294,None,245.97736406326294,None,,,0,False,3000.196933746338,-1.0,-1,250.86473488807678,None,pp_08,icub,clamp,2021_Dec_22_0918,exp,2021.2.3,59.92650462632231,
right,go,0,0,0,0,6,2,38,3,251.35892391204834,None,1,0.5351138114929199,251.35892391204834,None,252.02224397659302,None,253.03428101539612,253.3771619796753,253.03428101539612,253.3771619796753,252.02224397659302,None,252.02224397659302,None,252.02224397659302,None,-1,-1,1,True,295.9256172180176,448.70877265930176,right,254.6514880657196,None,pp_08,icub,clamp,2021_Dec_22_0918,exp,2021.2.3,59.92650462632231,
left,go,0,0,0,0,6,3,39,0,255.16806292533875,None,1,0.1401348114013672,255.16806292533875,None,255.39951491355896,None,256.40874195098877,256.7552819252014,256.40874195098877,256.7552819252014,255.39951491355896,None,255.39951491355896,None,255.39951491355896,None,-1,-1,1,True,275.12145042419434,426.6242980957031,left,257.9860179424286,None,pp_08,icub,clamp,2021_Dec_22_0918,exp,2021.2.3,59.92650462632231,
right,go,0,0,0,0,6,4,40,3,258.5057599544525,None,1,0.22695612907409668,258.5057599544525,None,258.86053490638733,None,259.85607290267944,260.2033760547638,259.85607290267944,260.2033760547638,258.86053490638733,None,258.86053490638733,None,258.86053490638733,None,-1,-1,1,True,236.88101768493652,444.7448253631592,right,261.4138960838318,None,pp_08,icub,clamp,2021_Dec_22_0918,exp,2021.2.3,59.92650462632231,
right,go,0,0,0,0,6,5,41,3,261.9166610240936,None,1,0.17992591857910156,261.9166610240936,None,262.211874961853,None,263.2255070209503,263.5649890899658,263.2255070209503,263.5649890899658,262.211874961853,None,262.211874961853,None,262.211874961853,None,-1,-1,1,True,448.3935832977295,461.3173007965088,right,264.99341011047363,None,pp_08,icub,clamp,2021_Dec_22_0918,exp,2021.2.3,59.92650462632231,
left,go,0,0,0,0,7,0,42,0,265.5007390975952,None,1,0.20776104927062988,265.5007390975952,None,265.79861211776733,None,266.7903730869293,267.1434988975525,266.7903730869293,267.1434988975525,265.79861211776733,None,265.79861211776733,None,265.79861211776733,None,-1,-1,1,True,241.29199981689453,442.9659843444824,left,268.35618591308594,None,pp_08,icub,clamp,2021_Dec_22_0918,exp,2021.2.3,59.92650462632231,
left,go,0,0,0,0,7,1,43,0,268.87667298316956,None,1,0.0932002067565918,268.87667298316956,None,269.05016803741455,None,270.0685510635376,270.43471908569336,270.0685510635376,270.43471908569336,269.05016803741455,None,269.05016803741455,None,269.05016803741455,None,-1,-1,1,True,247.30896949768066,445.37353515625,left,271.6148691177368,None,pp_08,icub,clamp,2021_Dec_22_0918,exp,2021.2.3,59.92650462632231,
left,stop,0,0,0,0,7,2,44,2,272.1309380531311,None,1,0.21017718315124512,272.1309380531311,None,272.42679500579834,None,273.4222459793091,273.7777519226074,273.4222459793091,273.7777519226074,272.42679500579834,None,272.42679500579834,None,272.42679500579834,None,200,250,0,True,248.54612350463867,412.45341300964355,left,274.9712669849396,None,pp_08,icub,clamp,2021_Dec_22_0918,exp,2021.2.3,59.92650462632231,
left,stop,0,0,0,0,7,3,45,2,275.49914503097534,None,1,0.39395904541015625,275.49914503097534,None,275.9784359931946,None,276.9870159626007,277.3338849544525,276.9870159626007,277.3338849544525,275.9784359931946,None,275.9784359931946,None,275.9784359931946,None,,,0,False,-1.0,-1.0,-1,277.6460130214691,None,pp_08,icub,clamp,2021_Dec_22_0918,exp,2021.2.3,59.92650462632231,
left,go,0,0,0,0,7,4,46,0,278.1790659427643,None,1,0.8985159397125244,278.1790659427643,None,279.20541191101074,None,280.22016191482544,280.5621991157532,280.22016191482544,280.5621991157532,279.20541191101074,None,279.20541191101074,None,279.20541191101074,None,-1,-1,1,True,294.6803569793701,484.59362983703613,left,281.8914589881897,None,pp_08,icub,clamp,2021_Dec_22_0918,exp,2021.2.3,59.92650462632231,
right,go,0,0,0,0,7,5,47,4,282.40744400024414,None,1,0.2291700839996338,282.40744400024414,None,282.7646369934082,None,283.76403188705444,284.1261260509491,283.76403188705444,284.1261260509491,282.7646369934082,None,282.7646369934082,None,282.7646369934082,None,-1,-1,1,True,261.5818977355957,477.69784927368164,right,285.39509296417236,None,pp_08,icub,clamp,2021_Dec_22_0918,exp,2021.2.3,59.92650462632231,
left,go,0,0,0,0,8,0,48,1,285.903568983078,None,1,0.1683800220489502,285.903568983078,None,286.1958980560303,None,287.19056010246277,287.54079389572144,287.19056010246277,287.54079389572144,286.1958980560303,None,286.1958980560303,None,286.1958980560303,None,-1,-1,1,True,286.04650497436523,429.2020797729492,left,288.78888988494873,None,pp_08,icub,clamp,2021_Dec_22_0918,exp,2021.2.3,59.92650462632231,
left,go,0,0,0,0,8,1,49,0,289.30800008773804,None,1,0.2263507843017578,289.30800008773804,None,289.6466360092163,None,290.6774160861969,291.0311350822449,290.6774160861969,291.0311350822449,289.6466360092163,None,289.6466360092163,None,289.6466360092163,None,-1,-1,1,True,275.35104751586914,400.393009185791,left,292.22055411338806,None,pp_08,icub,clamp,2021_Dec_22_0918,exp,2021.2.3,59.92650462632231,
right,go,0,0,0,0,8,2,50,4,292.73723793029785,None,1,0.2310779094696045,292.73723793029785,None,293.07601594924927,None,294.10464811325073,294.44659399986267,294.10464811325073,294.44659399986267,293.07601594924927,None,293.07601594924927,None,293.07601594924927,None,-1,-1,1,True,216.6604995727539,417.3009395599365,right,295.5956859588623,None,pp_08,icub,clamp,2021_Dec_22_0918,exp,2021.2.3,59.92650462632231,
right,stop,0,0,0,0,8,3,51,5,296.1073009967804,None,1,0.21738100051879883,296.1073009967804,None,296.40513801574707,None,297.4070279598236,297.76429510116577,297.4070279598236,297.76429510116577,296.40513801574707,None,296.40513801574707,None,296.40513801574707,None,150,250,0,True,282.1207046508789,387.16626167297363,right,298.9705979824066,None,pp_08,icub,clamp,2021_Dec_22_0918,exp,2021.2.3,59.92650462632231,
left,go,0,0,0,0,8,4,52,1,299.48764991760254,None,1,0.2998819351196289,299.48764991760254,None,299.9074170589447,None,300.9305770397186,301.2835030555725,300.9305770397186,301.2835030555725,299.9074170589447,None,299.9074170589447,None,299.9074170589447,None,-1,-1,1,True,270.8396911621094,511.2142562866211,left,302.57939410209656,None,pp_08,icub,clamp,2021_Dec_22_0918,exp,2021.2.3,59.92650462632231,
right,go,0,0,0,0,8,5,53,3,303.0954179763794,None,1,0.1659557819366455,303.0954179763794,None,303.38885402679443,None,304.41885209083557,304.7724940776825,304.41885209083557,304.7724940776825,303.38885402679443,None,303.38885402679443,None,303.38885402679443,None,-1,-1,1,True,258.4505081176758,444.307804107666,right,305.9661409854889,None,pp_08,icub,clamp,2021_Dec_22_0918,exp,2021.2.3,59.92650462632231,
right,stop,0,0,0,0,9,0,54,5,306.465873003006,None,1,0.03381919860839844,306.465873003006,None,306.63261795043945,None,307.63331508636475,307.9869360923767,307.63331508636475,307.9869360923767,306.63261795043945,None,306.63261795043945,None,306.63261795043945,None,150,200,0,True,254.68206405639648,322.4186897277832,right,309.08984994888306,None,pp_08,icub,clamp,2021_Dec_22_0918,exp,2021.2.3,59.92650462632231,
right,go,0,0,0,0,9,1,55,4,309.59132409095764,None,1,0.20720219612121582,309.59132409095764,None,309.8839108943939,None,310.8808739185333,311.2435829639435,310.8808739185333,311.2435829639435,309.8839108943939,None,309.8839108943939,None,309.8839108943939,None,-1,-1,1,True,287.7967357635498,325.7012367248535,right,312.3942139148712,None,pp_08,icub,clamp,2021_Dec_22_0918,exp,2021.2.3,59.92650462632231,
right,stop,0,0,0,0,9,2,56,5,312.9021921157837,None,1,0.07920122146606445,312.9021921157837,None,313.0706539154053,None,314.080176115036,314.43440198898315,314.080176115036,314.43440198898315,313.0706539154053,None,313.0706539154053,None,313.0706539154053,None,150,150,1,True,288.17176818847656,-1.0,-1,318.25130009651184,None,pp_08,icub,clamp,2021_Dec_22_0918,exp,2021.2.3,59.92650462632231,
left,stop,0,0,0,0,9,3,57,2,318.78351402282715,None,1,0.4703490734100342,318.78351402282715,None,319.3334710597992,None,320.34201097488403,320.69238805770874,320.34201097488403,320.69238805770874,319.3334710597992,None,319.3334710597992,None,319.3334710597992,None,150,200,1,True,295.85862159729004,-1.0,-1,324.50666189193726,None,pp_08,icub,clamp,2021_Dec_22_0918,exp,2021.2.3,59.92650462632231,
left,go,0,0,0,0,9,4,58,0,325.0370628833771,None,1,0.4877910614013672,325.0370628833771,None,325.65043807029724,None,326.62427711486816,326.95070791244507,326.62427711486816,326.95070791244507,325.65043807029724,None,325.65043807029724,None,325.65043807029724,None,-1,-1,1,True,350.69775581359863,454.01978492736816,left,328.33191990852356,None,pp_08,icub,clamp,2021_Dec_22_0918,exp,2021.2.3,59.92650462632231,
right,stop,0,0,0,0,9,5,59,5,328.8372640609741,None,1,0.02993917465209961,328.8372640609741,None,328.9473989009857,None,329.93597507476807,330.29053497314453,329.93597507476807,330.29053497314453,328.9473989009857,None,328.9473989009857,None,328.9473989009857,None,200,200,1,True,324.8748779296875,-1.0,-1,334.14529609680176,None,pp_08,icub,clamp,2021_Dec_22_0918,exp,2021.2.3,59.92650462632231,
right,go,0,0,0,0,10,0,60,3,334.6767039299011,None,1,0.4651179313659668,334.6767039299011,None,335.2266240119934,None,336.2312970161438,336.59437799453735,336.2312970161438,336.59437799453735,335.2266240119934,None,335.2266240119934,None,335.2266240119934,None,-1,-1,1,True,287.37354278564453,430.7270050048828,right,337.8335199356079,None,pp_08,icub,clamp,2021_Dec_22_0918,exp,2021.2.3,59.92650462632231,
right,stop,0,0,0,0,10,1,61,5,338.3684649467468,None,1,0.09798097610473633,338.3684649467468,None,338.5995090007782,None,339.63303899765015,339.98192596435547,339.63303899765015,339.98192596435547,338.5995090007782,None,338.5995090007782,None,338.5995090007782,None,200,250,0,True,321.6586112976074,386.38877868652344,right,341.2248549461365,None,pp_08,icub,clamp,2021_Dec_22_0918,exp,2021.2.3,59.92650462632231,
right,stop,0,0,0,0,10,2,62,5,341.73557305336,None,1,0.702908992767334,341.73557305336,None,342.52427101135254,None,343.531387090683,343.89051389694214,343.531387090683,343.89051389694214,342.52427101135254,None,342.52427101135254,None,342.52427101135254,None,200,200,1,True,300.2488613128662,-1.0,-1,347.7195448875427,None,pp_08,icub,clamp,2021_Dec_22_0918,exp,2021.2.3,59.92650462632231,
left,stop,0,0,0,0,10,3,63,2,348.2132918834686,None,1,0.5833909511566162,348.2132918834686,None,348.88727498054504,None,349.89705896377563,350.256306886673,349.89705896377563,350.256306886673,348.88727498054504,None,348.88727498054504,None,348.88727498054504,None,200,250,1,True,312.52360343933105,-1.0,-1,354.09848403930664,None,pp_08,icub,clamp,2021_Dec_22_0918,exp,2021.2.3,59.92650462632231,
left,stop,0,0,0,0,10,4,64,2,354.63031101226807,None,1,0.46628904342651367,354.63031101226807,None,355.1803689002991,None,356.15242099761963,356.48818802833557,356.15242099761963,356.48818802833557,355.1803689002991,None,355.1803689002991,None,355.1803689002991,None,250,250,0,True,284.548282623291,407.03535079956055,left,357.7793700695038,None,pp_08,icub,clamp,2021_Dec_22_0918,exp,2021.2.3,59.92650462632231,
right,go,0,0,0,0,10,5,65,4,358.28863501548767,None,1,1.3228681087493896,358.28863501548767,None,359.6968369483948,None,360.7181189060211,361.07656598091125,360.7181189060211,361.07656598091125,359.6968369483948,None,359.6968369483948,None,359.6968369483948,None,-1,-1,1,True,296.2656021118164,397.53031730651855,right,362.29791593551636,None,pp_08,icub,clamp,2021_Dec_22_0918,exp,2021.2.3,59.92650462632231,
right,stop,0,0,0,0,11,0,66,5,362.81878900527954,None,1,0.22897696495056152,362.81878900527954,None,363.1717369556427,None,364.18739795684814,364.5455319881439,364.18739795684814,364.5455319881439,363.1717369556427,None,363.1717369556427,None,363.1717369556427,None,200,250,0,True,408.64062309265137,389.68396186828613,right,365.8767080307007,None,pp_08,icub,clamp,2021_Dec_22_0918,exp,2021.2.3,59.92650462632231,
right,go,0,0,0,0,11,1,67,3,366.3905351161957,None,1,0.9975869655609131,366.3905351161957,None,367.4897999763489,None,368.49034690856934,368.8490090370178,368.49034690856934,368.8490090370178,367.4897999763489,None,367.4897999763489,None,367.4897999763489,None,-1,-1,1,True,242.2354221343994,431.7138195037842,right,370.07317209243774,None,pp_08,icub,clamp,2021_Dec_22_0918,exp,2021.2.3,59.92650462632231,
left,stop,0,0,0,0,11,2,68,2,370.5796000957489,None,1,0.23432111740112305,370.5796000957489,None,370.93437910079956,None,371.9407229423523,372.3051118850708,371.9407229423523,372.3051118850708,370.93437910079956,None,370.93437910079956,None,370.93437910079956,None,200,200,1,True,215.59667587280273,-1.0,-1,376.0507140159607,None,pp_08,icub,clamp,2021_Dec_22_0918,exp,2021.2.3,59.92650462632231,
left,go,0,0,0,0,11,3,69,0,376.58265209198,None,1,0.2888040542602539,376.58265209198,None,377.00949907302856,None,377.98936891555786,378.31405210494995,377.98936891555786,378.31405210494995,377.00949907302856,None,377.00949907302856,None,377.00949907302856,None,-1,-1,1,True,423.94256591796875,414.6602153778076,left,379.75027108192444,None,pp_08,icub,clamp,2021_Dec_22_0918,exp,2021.2.3,59.92650462632231,
right,go,0,0,0,0,11,4,70,4,380.2514719963074,None,1,0.21879100799560547,380.2514719963074,None,380.55103492736816,None,381.54517006874084,381.90365290641785,381.54517006874084,381.90365290641785,380.55103492736816,None,380.55103492736816,None,380.55103492736816,None,-1,-1,1,True,99.58052635192871,416.6450500488281,right,382.9502260684967,None,pp_08,icub,clamp,2021_Dec_22_0918,exp,2021.2.3,59.92650462632231,
left,go,0,0,0,0,11,5,71,0,383.45154309272766,None,1,0.4354090690612793,383.45154309272766,None,383.99766397476196,None,384.99309492111206,385.3452739715576,384.99309492111206,385.3452739715576,383.99766397476196,None,383.99766397476196,None,383.99766397476196,None,-1,-1,1,True,250.52452087402344,405.0321578979492,left,386.5296449661255,None,pp_08,icub,clamp,2021_Dec_22_0918,exp,2021.2.3,59.92650462632231,
right,stop,0,0,0,0,12,0,72,5,387.0443170070648,None,1,0.14728307723999023,387.0443170070648,None,387.27712202072144,None,388.2963240146637,388.64812111854553,388.2963240146637,388.64812111854553,387.27712202072144,None,387.27712202072144,None,387.27712202072144,None,250,200,1,True,83.33086967468262,-1.0,-1,392.26176404953003,None,pp_08,icub,clamp,2021_Dec_22_0918,exp,2021.2.3,59.92650462632231,
left,stop,0,0,0,0,12,1,73,2,392.7943699359894,None,1,0.8296880722045898,392.7943699359894,None,393.70059609413147,None,394.72632694244385,395.08258605003357,394.72632694244385,395.08258605003357,393.70059609413147,None,393.70059609413147,None,393.70059609413147,None,250,250,0,True,221.92645072937012,389.71424102783203,left,396.18734908103943,None,pp_08,icub,clamp,2021_Dec_22_0918,exp,2021.2.3,59.92650462632231,
left,go,0,0,0,0,12,2,74,1,396.6832330226898,None,1,0.5216178894042969,396.6832330226898,None,397.29052209854126,None,398.3001389503479,398.6432840824127,398.3001389503479,398.6432840824127,397.29052209854126,None,397.29052209854126,None,397.29052209854126,None,-1,-1,1,True,142.8053379058838,459.3493938446045,left,399.77315402030945,None,pp_08,icub,clamp,2021_Dec_22_0918,exp,2021.2.3,59.92650462632231,
right,go,0,0,0,0,12,3,75,4,400.28966307640076,None,1,0.19434094429016113,400.28966307640076,None,400.5693130493164,None,401.60121989250183,401.9547040462494,401.60121989250183,401.9547040462494,400.5693130493164,None,400.5693130493164,None,400.5693130493164,None,-1,-1,1,True,164.1993522644043,464.39409255981445,right,403.10712695121765,None,pp_08,icub,clamp,2021_Dec_22_0918,exp,2021.2.3,59.92650462632231,
right,go,0,0,0,0,12,4,76,4,403.6399419307709,None,1,0.06979584693908691,403.6399419307709,None,403.81118392944336,None,404.8461239337921,405.18875789642334,404.8461239337921,405.18875789642334,403.81118392944336,None,403.81118392944336,None,403.81118392944336,None,-1,-1,1,True,274.3830680847168,379.1830539703369,right,406.37203788757324,None,pp_08,icub,clamp,2021_Dec_22_0918,exp,2021.2.3,59.92650462632231,
left,go,0,0,0,0,12,5,77,0,406.8985559940338,None,1,0.05603289604187012,406.8985559940338,None,407.0691668987274,None,408.082181930542,408.43910694122314,408.082181930542,408.43910694122314,407.0691668987274,None,407.0691668987274,None,407.0691668987274,None,-1,-1,1,True,275.2656936645508,334.09643173217773,left,409.56014800071716,None,pp_08,icub,clamp,2021_Dec_22_0918,exp,2021.2.3,59.92650462632231,
left,go,1,0,1,0,0,0,0,0,419.254194021225,None,1,53.76318120956421,419.254194021225,None,473.1233320236206,None,474.13334012031555,474.4673230648041,474.13334012031555,474.4673230648041,473.1233320236206,None,473.1233320236206,None,473.1233320236206,None,-1,-1,1,True,373.2571601867676,468.92428398132324,left,475.8418130874634,None,pp_08,icub,clamp,2021_Dec_22_0918,exp,2021.2.3,59.92650462632231,
left,stop,1,0,1,0,0,1,1,2,476.3491380214691,None,1,0.30088090896606445,476.3491380214691,None,476.76953411102295,None,477.785178899765,478.14572501182556,477.785178899765,478.14572501182556,476.76953411102295,None,476.76953411102295,None,476.76953411102295,None,200,250,1,True,168.52378845214844,-1.0,-1,481.84267807006836,None,pp_08,icub,clamp,2021_Dec_22_0918,exp,2021.2.3,59.92650462632231,
right,go,1,0,1,0,0,2,2,4,482.37361907958984,None,1,0.4811699390411377,482.37361907958984,None,482.98683309555054,None,483.9708080291748,484.2974190711975,483.9708080291748,484.2974190711975,482.98683309555054,None,482.98683309555054,None,482.98683309555054,None,-1,-1,1,True,199.09143447875977,436.14935874938965,right,485.5063989162445,None,pp_08,icub,clamp,2021_Dec_22_0918,exp,2021.2.3,59.92650462632231,
right,stop,1,0,1,0,0,3,3,5,486.006441116333,None,1,0.24772286415100098,486.006441116333,None,486.36436700820923,None,487.3680410385132,487.7164878845215,487.3680410385132,487.7164878845215,486.36436700820923,None,486.36436700820923,None,486.36436700820923,None,250,250,1,True,180.41062355041504,-1.0,-1,491.42826199531555,None,pp_08,icub,clamp,2021_Dec_22_0918,exp,2021.2.3,59.92650462632231,
right,go,1,0,1,0,0,4,4,3,491.9597089290619,None,1,0.327894926071167,491.9597089290619,None,492.38780903816223,None,None,None,None,None,492.38780903816223,None,492.38780903816223,None,492.38780903816223,None,,,0,False,-1.0,-1.0,-1,492.5351150035858,None,pp_08,icub,clamp,2021_Dec_22_0918,exp,2021.2.3,59.92650462632231,
left,go,1,0,1,0,0,5,5,1,493.06706190109253,None,1,1.33250093460083,493.06706190109253,None,494.48921608924866,None,495.46284794807434,495.80663108825684,495.46284794807434,495.80663108825684,494.48921608924866,None,494.48921608924866,None,494.48921608924866,None,-1,-1,1,True,419.42906379699707,464.67089653015137,left,497.26875495910645,None,pp_08,icub,clamp,2021_Dec_22_0918,exp,2021.2.3,59.92650462632231,
right,go,1,0,1,0,1,0,6,4,497.7723579406738,None,1,0.22486400604248047,497.7723579406738,None,498.06749510765076,None,499.07986998558044,499.4363090991974,499.07986998558044,499.4363090991974,498.06749510765076,None,498.06749510765076,None,498.06749510765076,None,-1,-1,1,True,288.0096435546875,491.9905662536621,right,500.7375190258026,None,pp_08,icub,clamp,2021_Dec_22_0918,exp,2021.2.3,59.92650462632231,
right,go,1,0,1,0,1,1,7,3,501.2461190223694,None,1,0.11574101448059082,501.2461190223694,None,501.48132491111755,None,502.5121169090271,502.86549496650696,502.5121169090271,502.86549496650696,501.48132491111755,None,501.48132491111755,None,501.48132491111755,None,-1,-1,1,True,269.98329162597656,407.1471691131592,right,504.03132009506226,None,pp_08,icub,clamp,2021_Dec_22_0918,exp,2021.2.3,59.92650462632231,
left,go,1,0,1,0,1,2,8,0,504.5631630420685,None,1,0.1516420841217041,504.5631630420685,None,504.79503989219666,None,505.7983980178833,506.16265988349915,505.7983980178833,506.16265988349915,504.79503989219666,None,504.79503989219666,None,504.79503989219666,None,-1,-1,1,True,292.50144958496094,397.4287509918213,left,507.38383507728577,None,pp_08,icub,clamp,2021_Dec_22_0918,exp,2021.2.3,59.92650462632231,
left,stop,1,0,1,0,1,3,9,2,507.9002640247345,None,1,1.6482219696044922,507.9002640247345,None,509.6773889064789,None,510.6606159210205,511.0164461135864,510.6606159210205,511.0164461135864,509.6773889064789,None,509.6773889064789,None,509.6773889064789,None,250,300,0,True,286.5269184112549,402.58121490478516,left,512.2734620571136,None,pp_08,icub,clamp,2021_Dec_22_0918,exp,2021.2.3,59.92650462632231,
right,go,1,0,1,0,1,4,10,4,512.7797150611877,None,1,0.476168155670166,512.7797150611877,None,513.3746619224548,None,514.4027729034424,514.7650430202484,514.4027729034424,514.7650430202484,513.3746619224548,None,513.3746619224548,None,513.3746619224548,None,-1,-1,1,True,322.2823143005371,408.78820419311523,right,516.0219678878784,None,pp_08,icub,clamp,2021_Dec_22_0918,exp,2021.2.3,59.92650462632231,
right,go,1,0,1,0,1,5,11,4,516.5373380184174,None,1,1.0021660327911377,516.5373380184174,None,517.666531085968,None,518.6752328872681,519.0262160301208,518.6752328872681,519.0262160301208,517.666531085968,None,517.666531085968,None,517.666531085968,None,-1,-1,1,True,298.09021949768066,419.3112850189209,right,520.271234035492,None,pp_08,icub,clamp,2021_Dec_22_0918,exp,2021.2.3,59.92650462632231,
right,stop,1,0,1,0,2,0,12,5,520.7805950641632,None,1,0.7888209819793701,520.7805950641632,None,521.6852979660034,None,522.6680328845978,523.0281341075897,522.6680328845978,523.0281341075897,521.6852979660034,None,521.6852979660034,None,521.6852979660034,None,200,300,0,True,206.85076713562012,404.69956398010254,right,524.176577091217,None,pp_08,icub,clamp,2021_Dec_22_0918,exp,2021.2.3,59.92650462632231,
right,stop,1,0,1,0,2,1,13,5,524.6904799938202,None,1,0.33834385871887207,524.6904799938202,None,525.1090760231018,None,526.1429400444031,526.5004370212555,526.1429400444031,526.5004370212555,525.1090760231018,None,525.1090760231018,None,525.1090760231018,None,200,250,0,True,224.08270835876465,416.7747497558594,right,527.6224141120911,None,pp_08,icub,clamp,2021_Dec_22_0918,exp,2021.2.3,59.92650462632231,
right,go,1,0,1,0,2,2,14,4,528.136815071106,None,1,0.34809398651123047,528.136815071106,None,528.6134870052338,None,529.6093490123749,529.9760050773621,529.6093490123749,529.9760050773621,528.6134870052338,None,528.6134870052338,None,528.6134870052338,None,-1,-1,1,True,243.06058883666992,449.932336807251,right,531.2013459205627,None,pp_08,icub,clamp,2021_Dec_22_0918,exp,2021.2.3,59.92650462632231,
right,stop,1,0,1,0,2,3,15,5,531.7261118888855,None,1,1.0522661209106445,531.7261118888855,None,532.861841917038,None,533.8329470157623,534.1996579170227,533.8329470157623,534.1996579170227,532.861841917038,None,532.861841917038,None,532.861841917038,None,200,200,1,True,210.56628227233887,-1.0,-1,537.9418818950653,None,pp_08,icub,clamp,2021_Dec_22_0918,exp,2021.2.3,59.92650462632231,
left,stop,1,0,1,0,2,4,16,2,538.4752860069275,None,1,1.4790618419647217,538.4752860069275,None,540.0767979621887,None,541.0841929912567,541.4403529167175,541.0841929912567,541.4403529167175,540.0767979621887,None,540.0767979621887,None,540.0767979621887,None,200,250,1,True,198.4412670135498,-1.0,-1,545.1453409194946,None,pp_08,icub,clamp,2021_Dec_22_0918,exp,2021.2.3,59.92650462632231,
left,go,1,0,1,0,2,5,17,1,545.6783239841461,None,1,0.784034013748169,545.6783239841461,None,546.6004741191864,None,547.5855479240417,547.9535100460052,547.5855479240417,547.9535100460052,546.6004741191864,None,546.6004741191864,None,546.6004741191864,None,-1,-1,1,True,201.1117935180664,369.2617416381836,left,549.0500900745392,None,pp_08,icub,clamp,2021_Dec_22_0918,exp,2021.2.3,59.92650462632231,
right,stop,1,0,1,0,3,0,18,5,549.5595378875732,None,1,0.32851290702819824,549.5595378875732,None,549.9787158966064,None,550.972424030304,551.3309829235077,550.972424030304,551.3309829235077,549.9787158966064,None,549.9787158966064,None,549.9787158966064,None,250,250,0,True,115.4937744140625,449.3875503540039,right,552.4301619529724,None,pp_08,icub,clamp,2021_Dec_22_0918,exp,2021.2.3,59.92650462632231,
right,go,1,0,1,0,3,1,19,3,552.9486880302429,None,1,0.5800051689147949,552.9486880302429,None,553.6488571166992,None,554.6595280170441,555.0209150314331,554.6595280170441,555.0209150314331,553.6488571166992,None,553.6488571166992,None,553.6488571166992,None,-1,-1,1,True,240.21363258361816,439.93115425109863,right,556.2360489368439,None,pp_08,icub,clamp,2021_Dec_22_0918,exp,2021.2.3,59.92650462632231,
left,stop,1,0,1,0,3,2,20,2,556.7330300807953,None,1,0.6560230255126953,556.7330300807953,None,557.4983909130096,None,558.4832019805908,558.820643901825,558.4832019805908,558.820643901825,557.4983909130096,None,557.4983909130096,None,557.4983909130096,None,250,200,1,True,212.4772071838379,-1.0,-1,562.6066501140594,None,pp_08,icub,clamp,2021_Dec_22_0918,exp,2021.2.3,59.92650462632231,
right,go,1,0,1,0,3,3,21,3,563.1388440132141,None,1,0.26241207122802734,563.1388440132141,None,563.5034968852997,None,564.4876110553741,564.8298120498657,564.4876110553741,564.8298120498657,563.5034968852997,None,563.5034968852997,None,563.5034968852997,None,-1,-1,1,True,233.8716983795166,391.59202575683594,right,566.018975019455,None,pp_08,icub,clamp,2021_Dec_22_0918,exp,2021.2.3,59.92650462632231,
left,go,1,0,1,0,3,4,22,0,566.5263040065765,None,1,0.26140713691711426,566.5263040065765,None,566.8885450363159,None,567.889899969101,568.2568049430847,567.889899969101,568.2568049430847,566.8885450363159,None,566.8885450363159,None,566.8885450363159,None,-1,-1,1,True,257.720947265625,435.31227111816406,left,569.4813001155853,None,pp_08,icub,clamp,2021_Dec_22_0918,exp,2021.2.3,59.92650462632231,
left,go,1,0,1,0,3,5,23,0,569.9888908863068,None,1,0.31974196434020996,569.9888908863068,None,570.4091329574585,None,571.4129979610443,571.7398090362549,571.4129979610443,571.7398090362549,570.4091329574585,None,570.4091329574585,None,570.4091329574585,None,-1,-1,1,True,98.24824333190918,410.6402397155762,left,572.8212230205536,None,pp_08,icub,clamp,2021_Dec_22_0918,exp,2021.2.3,59.92650462632231,
right,stop,1,0,1,0,4,0,24,5,573.3296411037445,None,1,0.2562980651855469,573.3296411037445,None,573.6929330825806,None,574.7270550727844,575.0751729011536,574.7270550727844,575.0751729011536,573.6929330825806,None,573.6929330825806,None,573.6929330825806,None,300,200,1,True,208.7881565093994,-1.0,-1,578.8044459819794,None,pp_08,icub,clamp,2021_Dec_22_0918,exp,2021.2.3,59.92650462632231,
right,go,1,0,1,0,4,1,25,3,579.3361608982086,None,1,0.430966854095459,579.3361608982086,None,579.8881509304047,None,580.8733570575714,581.2296929359436,580.8733570575714,581.2296929359436,579.8881509304047,None,579.8881509304047,None,579.8881509304047,None,-1,-1,1,True,183.84265899658203,407.18960762023926,right,582.3461859226227,None,pp_08,icub,clamp,2021_Dec_22_0918,exp,2021.2.3,59.92650462632231,
left,go,1,0,1,0,4,2,26,1,582.863363981247,None,1,0.25337982177734375,582.863363981247,None,583.221841096878,None,584.2189359664917,584.5680780410767,584.2189359664917,584.5680780410767,583.221841096878,None,583.221841096878,None,583.221841096878,None,-1,-1,1,True,112.14494705200195,408.9996814727783,left,585.6337931156158,None,pp_08,icub,clamp,2021_Dec_22_0918,exp,2021.2.3,59.92650462632231,
right,go,1,0,1,0,4,3,27,4,586.1374759674072,None,1,0.23346400260925293,586.1374759674072,None,586.4918229579926,None,587.5093269348145,587.8633229732513,587.5093269348145,587.8633229732513,586.4918229579926,None,586.4918229579926,None,586.4918229579926,None,-1,-1,1,True,240.19527435302734,449.25665855407715,right,589.0733580589294,None,pp_08,icub,clamp,2021_Dec_22_0918,exp,2021.2.3,59.92650462632231,
left,go,1,0,1,0,4,4,28,0,589.5950829982758,None,1,0.05029296875,589.5950829982758,None,589.7629330158234,None,590.7673790454865,591.133229970932,590.7673790454865,591.133229970932,589.7629330158234,None,589.7629330158234,None,589.7629330158234,None,-1,-1,1,True,267.0900821685791,341.5110111236572,left,592.2731618881226,None,pp_08,icub,clamp,2021_Dec_22_0918,exp,2021.2.3,59.92650462632231,
right,go,1,0,1,0,4,5,29,3,592.7941689491272,None,1,0.2523081302642822,592.7941689491272,None,593.1528489589691,None,594.1619300842285,594.5170450210571,594.1619300842285,594.5170450210571,593.1528489589691,None,593.1528489589691,None,593.1528489589691,None,-1,-1,1,True,78.96733283996582,473.85096549987793,right,595.601958990097,None,pp_08,icub,clamp,2021_Dec_22_0918,exp,2021.2.3,59.92650462632231,
left,go,1,0,1,0,5,0,30,0,596.1166338920593,None,1,0.08891606330871582,596.1166338920593,None,596.2910339832306,None,597.2825150489807,597.6454939842224,597.2825150489807,597.6454939842224,596.2910339832306,None,596.2910339832306,None,596.2910339832306,None,-1,-1,1,True,252.17556953430176,419.6441173553467,left,598.8492579460144,None,pp_08,icub,clamp,2021_Dec_22_0918,exp,2021.2.3,59.92650462632231,
left,stop,1,0,1,0,5,1,31,2,599.3634519577026,None,1,0.24619317054748535,599.3634519577026,None,599.7208540439606,None,600.7277100086212,601.0550229549408,600.7277100086212,601.0550229549408,599.7208540439606,None,599.7208540439606,None,599.7208540439606,None,300,250,0,True,268.88251304626465,440.3374195098877,left,602.3400230407715,None,pp_08,icub,clamp,2021_Dec_22_0918,exp,2021.2.3,59.92650462632231,
right,go,1,0,1,0,5,2,32,4,602.8600900173187,None,1,0.9526770114898682,602.8600900173187,None,603.8982191085815,None,604.9032919406891,605.2409460544586,604.9032919406891,605.2409460544586,603.8982191085815,None,603.8982191085815,None,603.8982191085815,None,-1,-1,1,True,417.94657707214355,414.4718647003174,right,606.6119689941406,None,pp_08,icub,clamp,2021_Dec_22_0918,exp,2021.2.3,59.92650462632231,
left,go,1,0,1,0,5,3,33,0,607.1162528991699,None,1,0.2482471466064453,607.1162528991699,None,607.4733490943909,None,608.4789090156555,608.8325231075287,608.4789090156555,608.8325231075287,607.4733490943909,None,607.4733490943909,None,607.4733490943909,None,-1,-1,1,True,160.5074405670166,423.7816333770752,left,609.946681022644,None,pp_08,icub,clamp,2021_Dec_22_0918,exp,2021.2.3,59.92650462632231,
right,go,1,0,1,0,5,4,34,4,610.4519999027252,None,1,0.1705620288848877,610.4519999027252,None,610.745847940445,None,611.7628290653229,612.1174600124359,611.7628290653229,612.1174600124359,610.745847940445,None,610.745847940445,None,610.745847940445,None,-1,-1,1,True,125.22411346435547,518.6550617218018,right,613.2865390777588,None,pp_08,icub,clamp,2021_Dec_22_0918,exp,2021.2.3,59.92650462632231,
left,go,1,0,1,0,5,5,35,0,613.7974700927734,None,1,0.03680992126464844,613.7974700927734,None,613.9671559333801,None,614.960058927536,615.3109118938446,614.960058927536,615.3109118938446,613.9671559333801,None,613.9671559333801,None,613.9671559333801,None,-1,-1,1,True,181.5042495727539,393.831729888916,left,616.4531199932098,None,pp_08,icub,clamp,2021_Dec_22_0918,exp,2021.2.3,59.92650462632231,
right,go,1,0,1,0,6,0,36,3,616.9576239585876,None,1,0.07477807998657227,616.9576239585876,None,617.132828950882,None,618.1618371009827,618.5172209739685,618.1618371009827,618.5172209739685,617.132828950882,None,617.132828950882,None,617.132828950882,None,-1,-1,1,True,186.77854537963867,355.1177978515625,right,619.576553106308,None,pp_08,icub,clamp,2021_Dec_22_0918,exp,2021.2.3,59.92650462632231,
right,go,1,0,1,0,6,1,37,4,620.0914208889008,None,1,0.21583223342895508,620.0914208889008,None,620.3876159191132,None,621.3960359096527,621.7498779296875,621.3960359096527,621.7498779296875,620.3876159191132,None,620.3876159191132,None,620.3876159191132,None,-1,-1,1,True,221.67563438415527,287.21165657043457,right,622.7886710166931,None,pp_08,icub,clamp,2021_Dec_22_0918,exp,2021.2.3,59.92650462632231,
left,go,1,0,1,0,6,2,38,1,623.3190751075745,None,1,0.05927395820617676,623.3190751075745,None,623.4898641109467,None,624.4805729389191,624.8387689590454,624.4805729389191,624.8387689590454,623.4898641109467,None,623.4898641109467,None,623.4898641109467,None,-1,-1,1,True,214.77055549621582,395.5390453338623,left,625.9769999980927,None,pp_08,icub,clamp,2021_Dec_22_0918,exp,2021.2.3,59.92650462632231,
right,stop,1,0,1,0,6,3,39,5,626.4813730716705,None,1,0.18858909606933594,626.4813730716705,None,626.7759640216827,None,627.7780520915985,628.1340088844299,627.7780520915985,628.1340088844299,626.7759640216827,None,626.7759640216827,None,626.7759640216827,None,250,250,0,True,160.92228889465332,414.3197536468506,right,629.2408139705658,None,pp_08,icub,clamp,2021_Dec_22_0918,exp,2021.2.3,59.92650462632231,
left,stop,1,0,1,0,6,4,40,2,629.7447240352631,None,1,0.8585119247436523,629.7447240352631,None,630.7182369232178,None,631.7279269695282,632.0914120674133,631.7279269695282,632.0914120674133,630.7182369232178,None,630.7182369232178,None,630.7182369232178,None,250,200,0,True,234.41171646118164,409.34133529663086,left,633.2517509460449,None,pp_08,icub,clamp,2021_Dec_22_0918,exp,2021.2.3,59.92650462632231,
left,go,1,0,1,0,6,5,41,1,633.7568669319153,None,1,1.1554388999938965,633.7568669319153,None,635.0403940677643,None,636.0372910499573,636.3851130008698,636.0372910499573,636.3851130008698,635.0403940677643,None,635.0403940677643,None,635.0403940677643,None,-1,-1,1,True,247.67565727233887,496.1874485015869,left,637.6817629337311,None,pp_08,icub,clamp,2021_Dec_22_0918,exp,2021.2.3,59.92650462632231,
left,go,1,0,1,0,7,0,42,0,638.1988859176636,None,1,0.12026596069335938,638.1988859176636,None,638.433336019516,None,639.4363279342651,639.7792398929596,639.4363279342651,639.7792398929596,638.433336019516,None,638.433336019516,None,638.433336019516,None,-1,-1,1,True,226.26423835754395,498.7750053405762,left,641.0565719604492,None,pp_08,icub,clamp,2021_Dec_22_0918,exp,2021.2.3,59.92650462632231,
right,go,1,0,1,0,7,1,43,3,641.5706400871277,None,1,0.16844916343688965,641.5706400871277,None,641.862489938736,None,642.8654639720917,643.2248868942261,642.8654639720917,643.2248868942261,641.862489938736,None,641.862489938736,None,641.862489938736,None,-1,-1,1,True,207.66663551330566,344.3727493286133,right,644.3036351203918,None,pp_08,icub,clamp,2021_Dec_22_0918,exp,2021.2.3,59.92650462632231,
left,go,1,0,1,0,7,2,44,1,644.8153240680695,None,1,0.04991006851196289,644.8153240680695,None,644.9861259460449,None,646.0039029121399,646.333508014679,646.0039029121399,646.333508014679,644.9861259460449,None,644.9861259460449,None,644.9861259460449,None,-1,-1,1,True,140.8083438873291,385.0867748260498,left,647.4167640209198,None,pp_08,icub,clamp,2021_Dec_22_0918,exp,2021.2.3,59.92650462632231,
right,go,1,0,1,0,7,3,45,4,647.9511179924011,None,1,0.184035062789917,647.9511179924011,None,648.2497079372406,None,649.2744920253754,649.6315259933472,649.2744920253754,649.6315259933472,648.2497079372406,None,648.2497079372406,None,648.2497079372406,None,-1,-1,1,True,220.0005054473877,367.42472648620605,right,650.709125995636,None,pp_08,icub,clamp,2021_Dec_22_0918,exp,2021.2.3,59.92650462632231,
right,go,1,0,1,0,7,4,46,3,651.211571931839,None,1,0.1604750156402588,651.211571931839,None,651.447662115097,None,652.4403018951416,652.7978699207306,652.4403018951416,652.7978699207306,651.447662115097,None,651.447662115097,None,651.447662115097,None,-1,-1,1,True,158.22839736938477,373.9583492279053,right,653.8632500171661,None,pp_08,icub,clamp,2021_Dec_22_0918,exp,2021.2.3,59.92650462632231,
right,stop,1,0,1,0,7,5,47,5,654.3806519508362,None,1,0.07444381713867188,654.3806519508362,None,654.555342912674,None,655.554102897644,655.9039659500122,655.554102897644,655.9039659500122,654.555342912674,None,654.555342912674,None,654.555342912674,None,200,200,1,True,203.9656639099121,-1.0,-1,659.6314129829407,None,pp_08,icub,clamp,2021_Dec_22_0918,exp,2021.2.3,59.92650462632231,
left,go,1,0,1,0,8,0,48,1,660.1642808914185,None,1,0.30242180824279785,660.1642808914185,None,660.5915839672089,None,661.5737090110779,661.9391329288483,661.5737090110779,661.9391329288483,660.5915839672089,None,660.5915839672089,None,660.5915839672089,None,-1,-1,1,True,257.02738761901855,471.1263179779053,left,663.1953229904175,None,pp_08,icub,clamp,2021_Dec_22_0918,exp,2021.2.3,59.92650462632231,
left,stop,1,0,1,0,8,1,49,2,663.7040169239044,None,1,0.23299002647399902,663.7040169239044,None,664.0609719753265,None,665.093239068985,665.4478199481964,665.093239068985,665.4478199481964,664.0609719753265,None,664.0609719753265,None,664.0609719753265,None,200,250,1,True,107.61308670043945,-1.0,-1,669.0762729644775,None,pp_08,icub,clamp,2021_Dec_22_0918,exp,2021.2.3,59.92650462632231,
right,go,1,0,1,0,8,2,50,3,669.6088500022888,None,1,1.2707710266113281,669.6088500022888,None,670.9636828899384,None,671.9460771083832,672.3090889453888,671.9460771083832,672.3090889453888,670.9636828899384,None,670.9636828899384,None,670.9636828899384,None,-1,-1,1,True,216.22824668884277,358.54172706604004,right,673.4316999912262,None,pp_08,icub,clamp,2021_Dec_22_0918,exp,2021.2.3,59.92650462632231,
left,stop,1,0,1,0,8,3,51,2,673.9526290893555,None,1,0.21175789833068848,673.9526290893555,None,674.2498540878296,None,675.2694520950317,675.6177670955658,675.2694520950317,675.6177670955658,674.2498540878296,None,674.2498540878296,None,674.2498540878296,None,250,250,0,True,250.21100044250488,379.718542098999,left,676.7823910713196,None,pp_08,icub,clamp,2021_Dec_22_0918,exp,2021.2.3,59.92650462632231,
left,go,1,0,1,0,8,4,52,0,677.2974860668182,None,1,0.6003170013427734,677.2974860668182,None,678.0270960330963,None,679.0461928844452,679.3939909934998,679.0461928844452,679.3939909934998,678.0270960330963,None,678.0270960330963,None,678.0270960330963,None,-1,-1,1,True,309.16762351989746,471.47202491760254,left,680.7056119441986,None,pp_08,icub,clamp,2021_Dec_22_0918,exp,2021.2.3,59.92650462632231,
right,go,1,0,1,0,8,5,53,4,681.2073969841003,None,1,0.0967400074005127,681.2073969841003,None,681.4369211196899,None,682.4447860717773,682.7840209007263,682.4447860717773,682.7840209007263,681.4369211196899,None,681.4369211196899,None,681.4369211196899,None,-1,-1,1,True,55.32431602478027,421.6787815093994,right,683.825786113739,None,pp_08,icub,clamp,2021_Dec_22_0918,exp,2021.2.3,59.92650462632231,
left,go,1,0,1,0,9,0,54,1,684.3314979076385,None,1,0.1555008888244629,684.3314979076385,None,684.5676870346069,None,685.5768299102783,685.9333329200745,685.5768299102783,685.9333329200745,684.5676870346069,None,684.5676870346069,None,684.5676870346069,None,-1,-1,1,True,94.73013877868652,503.70001792907715,left,687.0607829093933,None,pp_08,icub,clamp,2021_Dec_22_0918,exp,2021.2.3,59.92650462632231,
right,stop,1,0,1,0,9,1,55,5,687.5701680183411,None,1,0.07581520080566406,687.5701680183411,None,687.7408421039581,None,688.7513349056244,689.1073889732361,688.7513349056244,689.1073889732361,687.7408421039581,None,687.7408421039581,None,687.7408421039581,None,200,250,0,True,149.71089363098145,336.5292549133301,right,690.1315610408783,None,pp_08,icub,clamp,2021_Dec_22_0918,exp,2021.2.3,59.92650462632231,
right,go,1,0,1,0,9,2,56,4,690.6398038864136,None,1,0.45135998725891113,690.6398038864136,None,691.1818740367889,None,692.2132070064545,692.5421199798584,692.2132070064545,692.5421199798584,691.1818740367889,None,691.1818740367889,None,691.1818740367889,None,-1,-1,1,True,205.36184310913086,354.5815944671631,right,693.6404619216919,None,pp_08,icub,clamp,2021_Dec_22_0918,exp,2021.2.3,59.92650462632231,
right,stop,1,0,1,0,9,3,57,5,694.1463420391083,None,1,0.10817790031433105,694.1463420391083,None,694.3776330947876,None,695.3962059020996,695.7467079162598,695.3962059020996,695.7467079162598,694.3776330947876,None,694.3776330947876,None,694.3776330947876,None,200,200,0,True,188.3695125579834,357.94878005981445,right,696.8296389579773,None,pp_08,icub,clamp,2021_Dec_22_0918,exp,2021.2.3,59.92650462632231,
left,stop,1,0,1,0,9,4,58,2,697.3306999206543,None,1,0.3597238063812256,697.3306999206543,None,697.8044919967651,None,698.8331251144409,699.1890580654144,698.8331251144409,699.1890580654144,697.8044919967651,None,697.8044919967651,None,697.8044919967651,None,200,150,1,True,214.92838859558105,-1.0,-1,702.9363129138947,None,pp_08,icub,clamp,2021_Dec_22_0918,exp,2021.2.3,59.92650462632231,
left,go,1,0,1,0,9,5,59,1,703.4310600757599,None,1,0.7493300437927246,703.4310600757599,None,704.2924380302429,None,705.2678029537201,705.6260340213776,705.2678029537201,705.6260340213776,704.2924380302429,None,704.2924380302429,None,704.2924380302429,None,-1,-1,1,True,119.20762062072754,388.2896900177002,left,706.6693570613861,None,pp_08,icub,clamp,2021_Dec_22_0918,exp,2021.2.3,59.92650462632231,
left,stop,1,0,1,0,10,0,60,2,707.1729469299316,None,1,0.09995198249816895,707.1729469299316,None,707.4014189243317,None,708.395131111145,708.7488040924072,708.395131111145,708.7488040924072,707.4014189243317,None,707.4014189243317,None,707.4014189243317,None,250,150,0,True,208.84227752685547,357.42998123168945,left,709.8510749340057,None,pp_08,icub,clamp,2021_Dec_22_0918,exp,2021.2.3,59.92650462632231,
right,stop,1,0,1,0,10,1,61,5,710.3718800544739,None,1,0.42399001121520996,710.3718800544739,None,710.9165830612183,None,711.9225089550018,712.2695980072021,711.9225089550018,712.2695980072021,710.9165830612183,None,710.9165830612183,None,710.9165830612183,None,200,150,0,True,91.67313575744629,389.707088470459,right,713.2806079387665,None,pp_08,icub,clamp,2021_Dec_22_0918,exp,2021.2.3,59.92650462632231,
left,stop,1,0,1,0,10,2,62,2,713.7922129631042,None,1,0.41255903244018555,713.7922129631042,None,714.3324530124664,None,715.3508388996124,715.7107939720154,715.3508388996124,715.7107939720154,714.3324530124664,None,714.3324530124664,None,714.3324530124664,None,200,100,0,True,161.3912582397461,351.23443603515625,left,716.7541699409485,None,pp_08,icub,clamp,2021_Dec_22_0918,exp,2021.2.3,59.92650462632231,
left,go,1,0,1,0,10,3,63,1,717.2696359157562,None,1,0.4813239574432373,717.2696359157562,None,717.8714740276337,None,718.8952450752258,719.2551560401917,718.8952450752258,719.2551560401917,717.8714740276337,None,717.8714740276337,None,717.8714740276337,None,-1,-1,1,True,187.2236728668213,368.8852787017822,left,720.3381569385529,None,pp_08,icub,clamp,2021_Dec_22_0918,exp,2021.2.3,59.92650462632231,
left,go,1,0,1,0,10,4,64,1,720.8599829673767,None,1,0.08190011978149414,720.8599829673767,None,721.0245840549469,None,722.0275490283966,722.3752119541168,722.0275490283966,722.3752119541168,721.0245840549469,None,721.0245840549469,None,721.0245840549469,None,-1,-1,1,True,180.09305000305176,343.1556224822998,left,723.4572820663452,None,pp_08,icub,clamp,2021_Dec_22_0918,exp,2021.2.3,59.92650462632231,
left,go,1,0,1,0,10,5,65,0,723.9641909599304,None,1,0.09446883201599121,723.9641909599304,None,724.1925740242004,None,725.2172060012817,725.5812990665436,725.2172060012817,725.5812990665436,724.1925740242004,None,724.1925740242004,None,724.1925740242004,None,-1,-1,1,True,151.93653106689453,400.1457691192627,left,726.6223919391632,None,pp_08,icub,clamp,2021_Dec_22_0918,exp,2021.2.3,59.92650462632231,
left,stop,1,0,1,0,11,0,66,2,727.140851020813,None,1,0.632922887802124,727.140851020813,None,727.8709309101105,None,728.8515520095825,729.2147300243378,728.8515520095825,729.2147300243378,727.8709309101105,None,727.8709309101105,None,727.8709309101105,None,150,100,1,True,126.94740295410156,-1.0,-1,732.8947389125824,None,pp_08,icub,clamp,2021_Dec_22_0918,exp,2021.2.3,59.92650462632231,
right,go,1,0,1,0,11,1,67,3,733.4114489555359,None,1,0.26545214653015137,733.4114489555359,None,733.7736039161682,None,734.7829821109772,735.1454789638519,734.7829821109772,735.1454789638519,733.7736039161682,None,733.7736039161682,None,733.7736039161682,None,-1,-1,1,True,193.4208869934082,340.4405117034912,right,736.1708400249481,None,pp_08,icub,clamp,2021_Dec_22_0918,exp,2021.2.3,59.92650462632231,
left,go,1,0,1,0,11,2,68,1,736.6813809871674,None,1,0.255295991897583,736.6813809871674,None,737.0390069484711,None,738.0663049221039,738.4312388896942,738.0663049221039,738.4312388896942,737.0390069484711,None,737.0390069484711,None,737.0390069484711,None,-1,-1,1,True,211.2295627593994,412.5802516937256,left,739.5344951152802,None,pp_08,icub,clamp,2021_Dec_22_0918,exp,2021.2.3,59.92650462632231,
left,go,1,0,1,0,11,3,69,0,740.0433340072632,None,1,0.20256710052490234,740.0433340072632,None,740.3359611034393,None,741.3711020946503,741.7225170135498,741.3711020946503,741.7225170135498,740.3359611034393,None,740.3359611034393,None,740.3359611034393,None,-1,-1,1,True,115.60821533203125,410.2187156677246,left,742.7692999839783,None,pp_08,icub,clamp,2021_Dec_22_0918,exp,2021.2.3,59.92650462632231,
right,go,1,0,1,0,11,4,70,3,743.2891840934753,None,1,0.23371601104736328,743.2891840934753,None,743.6420729160309,None,744.6524240970612,745.0085198879242,744.6524240970612,745.0085198879242,743.6420729160309,None,743.6420729160309,None,743.6420729160309,None,-1,-1,1,True,227.3085117340088,390.50960540771484,right,746.1501269340515,None,pp_08,icub,clamp,2021_Dec_22_0918,exp,2021.2.3,59.92650462632231,
right,stop,1,0,1,0,11,5,71,5,746.6675989627838,None,1,0.27227115631103516,746.6675989627838,None,747.0256459712982,None,748.0456130504608,748.405445098877,748.0456130504608,748.405445098877,747.0256459712982,None,747.0256459712982,None,747.0256459712982,None,200,100,1,True,186.33103370666504,-1.0,-1,752.0987920761108,None,pp_08,icub,clamp,2021_Dec_22_0918,exp,2021.2.3,59.92650462632231,
left,go,1,0,1,0,12,0,72,1,752.6299500465393,None,1,0.45322608947753906,752.6299500465393,None,753.1810340881348,None,754.1651899814606,754.5188360214233,754.1651899814606,754.5188360214233,753.1810340881348,None,753.1810340881348,None,753.1810340881348,None,-1,-1,1,True,132.74908065795898,414.3345355987549,left,755.599198102951,None,pp_08,icub,clamp,2021_Dec_22_0918,exp,2021.2.3,59.92650462632231,
left,go,1,0,1,0,12,1,73,0,756.1274869441986,None,1,0.23806309700012207,756.1274869441986,None,756.4799699783325,None,757.4921550750732,757.8522279262543,757.4921550750732,757.8522279262543,756.4799699783325,None,756.4799699783325,None,756.4799699783325,None,-1,-1,1,True,142.561674118042,444.3783760070801,left,758.9687519073486,None,pp_08,icub,clamp,2021_Dec_22_0918,exp,2021.2.3,59.92650462632231,
right,stop,1,0,1,0,12,2,74,5,759.4952259063721,None,1,0.2778449058532715,759.4952259063721,None,759.853492975235,None,760.8506460189819,761.2079129219055,760.8506460189819,761.2079129219055,759.853492975235,None,759.853492975235,None,759.853492975235,None,200,150,1,True,193.9072608947754,-1.0,-1,764.9288439750671,None,pp_08,icub,clamp,2021_Dec_22_0918,exp,2021.2.3,59.92650462632231,
right,go,1,0,1,0,12,3,75,3,765.462769985199,None,1,0.3553621768951416,765.462769985199,None,765.9537179470062,None,766.9340720176697,767.2917969226837,766.9340720176697,767.2917969226837,765.9537179470062,None,765.9537179470062,None,765.9537179470062,None,-1,-1,1,True,173.600435256958,355.1521301269531,right,768.3479120731354,None,pp_08,icub,clamp,2021_Dec_22_0918,exp,2021.2.3,59.92650462632231,
right,go,1,0,1,0,12,4,76,4,768.8678588867188,None,1,0.456805944442749,768.8678588867188,None,769.4105188846588,None,770.4270000457764,770.7798759937286,770.4270000457764,770.7798759937286,769.4105188846588,None,769.4105188846588,None,769.4105188846588,None,-1,-1,1,True,103.09624671936035,453.9041519165039,right,771.8676669597626,None,pp_08,icub,clamp,2021_Dec_22_0918,exp,2021.2.3,59.92650462632231,
left,stop,1,0,1,0,12,5,77,2,772.3878490924835,None,1,0.3928401470184326,772.3878490924835,None,772.8713729381561,None,773.8788449764252,774.2326619625092,773.8788449764252,774.2326619625092,772.8713729381561,None,772.8713729381561,None,772.8713729381561,None,200,200,1,True,202.25954055786133,-1.0,-1,777.9629230499268,None,pp_08,icub,clamp,2021_Dec_22_0918,exp,2021.2.3,59.92650462632231,
left,stop,2,0,2,0,0,0,0,2,800.8796761035919,None,1,5.371835231781006,800.8796761035919,None,806.3718929290771,None,None,None,None,None,806.3718929290771,None,806.3718929290771,None,806.3718929290771,None,,,0,False,-1.0,-1.0,-1,806.6273069381714,None,pp_08,icub,clamp,2021_Dec_22_0918,exp,2021.2.3,59.92650462632231,
right,go,2,0,2,0,0,1,1,4,807.1213390827179,None,1,1.755709171295166,807.1213390827179,None,808.9721670150757,None,809.9840369224548,810.313285112381,809.9840369224548,810.313285112381,808.9721670150757,None,808.9721670150757,None,808.9721670150757,None,-1,-1,1,True,129.06932830810547,463.6392593383789,right,811.43696808815,None,pp_08,icub,clamp,2021_Dec_22_0918,exp,2021.2.3,59.92650462632231,
left,go,2,0,2,0,0,2,2,1,811.9422769546509,None,1,0.3072500228881836,811.9422769546509,None,812.3594551086426,None,813.3957469463348,813.7504739761353,813.3957469463348,813.7504739761353,812.3594551086426,None,812.3594551086426,None,812.3594551086426,None,-1,-1,1,True,190.00720977783203,444.7746276855469,left,814.8705089092255,None,pp_08,icub,clamp,2021_Dec_22_0918,exp,2021.2.3,59.92650462632231,
left,go,2,0,2,0,0,3,3,0,815.3883240222931,None,1,0.2650430202484131,815.3883240222931,None,815.743940114975,None,816.7757050991058,817.1136140823364,816.7757050991058,817.1136140823364,815.743940114975,None,815.743940114975,None,815.743940114975,None,-1,-1,1,True,112.41626739501953,419.5897579193115,left,818.1751639842987,None,pp_08,icub,clamp,2021_Dec_22_0918,exp,2021.2.3,59.92650462632231,
right,go,2,0,2,0,0,4,4,4,818.6954200267792,None,1,0.2217390537261963,818.6954200267792,None,818.9926419258118,None,820.0142679214478,820.3572359085083,820.0142679214478,820.3572359085083,818.9926419258118,None,818.9926419258118,None,818.9926419258118,None,-1,-1,1,True,129.38952445983887,358.1266403198242,right,821.3697340488434,None,pp_08,icub,clamp,2021_Dec_22_0918,exp,2021.2.3,59.92650462632231,
right,go,2,0,2,0,0,5,5,4,821.8896019458771,None,1,0.2116398811340332,821.8896019458771,None,822.1833679676056,None,823.1921980381012,823.5449769496918,823.1921980381012,823.5449769496918,822.1833679676056,None,822.1833679676056,None,822.1833679676056,None,-1,-1,1,True,124.37796592712402,330.44981956481934,right,824.5235919952393,None,pp_08,icub,clamp,2021_Dec_22_0918,exp,2021.2.3,59.92650462632231,
left,go,2,0,2,0,1,0,6,1,825.0447819232941,None,1,0.23125195503234863,825.0447819232941,None,825.3958470821381,None,826.398206949234,826.7541399002075,826.398206949234,826.7541399002075,825.3958470821381,None,825.3958470821381,None,825.3958470821381,None,-1,-1,1,True,183.50815773010254,341.9840335845947,left,827.8058669567108,None,pp_08,icub,clamp,2021_Dec_22_0918,exp,2021.2.3,59.92650462632231,
left,go,2,0,2,0,1,1,7,0,828.3106729984283,None,1,0.027164936065673828,828.3106729984283,None,828.4230759143829,None,829.4063820838928,829.7769169807434,829.4063820838928,829.7769169807434,828.4230759143829,None,828.4230759143829,None,828.4230759143829,None,-1,-1,1,True,168.50709915161133,327.4052143096924,left,830.8018219470978,None,pp_08,icub,clamp,2021_Dec_22_0918,exp,2021.2.3,59.92650462632231,
right,go,2,0,2,0,1,2,8,3,831.2983450889587,None,1,0.4668729305267334,831.2983450889587,None,831.8928010463715,None,832.928524017334,833.2730910778046,832.928524017334,833.2730910778046,831.8928010463715,None,831.8928010463715,None,831.8928010463715,None,-1,-1,1,True,184.81945991516113,485.62049865722656,right,834.4732539653778,None,pp_08,icub,clamp,2021_Dec_22_0918,exp,2021.2.3,59.92650462632231,
left,go,2,0,2,0,1,3,9,0,835.0083041191101,None,1,0.20400285720825195,835.0083041191101,None,835.3020780086517,None,836.304121017456,836.6531341075897,836.304121017456,836.6531341075897,835.3020780086517,None,835.3020780086517,None,835.3020780086517,None,-1,-1,1,True,142.8365707397461,403.60474586486816,left,837.732183933258,None,pp_08,icub,clamp,2021_Dec_22_0918,exp,2021.2.3,59.92650462632231,
right,stop,2,0,2,0,1,4,10,5,838.2442851066589,None,1,0.5579628944396973,838.2442851066589,None,838.9092280864716,None,839.905839920044,840.2663259506226,839.905839920044,840.2663259506226,838.9092280864716,None,838.9092280864716,None,838.9092280864716,None,250,200,1,True,195.17230987548828,-1.0,-1,843.985897064209,None,pp_08,icub,clamp,2021_Dec_22_0918,exp,2021.2.3,59.92650462632231,
right,go,2,0,2,0,1,5,11,3,844.5181000232697,None,1,0.3675570487976074,844.5181000232697,None,845.0072040557861,None,845.9915020465851,846.3377571105957,845.9915020465851,846.3377571105957,845.0072040557861,None,845.0072040557861,None,845.0072040557861,None,-1,-1,1,True,92.83161163330078,392.2898769378662,right,847.3805570602417,None,pp_08,icub,clamp,2021_Dec_22_0918,exp,2021.2.3,59.92650462632231,
left,go,2,0,2,0,2,0,12,0,847.8970649242401,None,1,0.274075984954834,847.8970649242401,None,848.2566659450531,None,849.2672400474548,849.5975968837738,849.2672400474548,849.5975968837738,848.2566659450531,None,848.2566659450531,None,848.2566659450531,None,-1,-1,1,True,53.704261779785156,399.74522590637207,left,850.5803020000458,None,pp_08,icub,clamp,2021_Dec_22_0918,exp,2021.2.3,59.92650462632231,
left,go,2,0,2,0,2,1,13,0,851.1003329753876,None,1,0.17365503311157227,851.1003329753876,None,851.3926069736481,None,852.4263370037079,852.7672600746155,852.4263370037079,852.7672600746155,851.3926069736481,None,851.3926069736481,None,851.3926069736481,None,-1,-1,1,True,149.9955654144287,415.55142402648926,left,853.8627080917358,None,pp_08,icub,clamp,2021_Dec_22_0918,exp,2021.2.3,59.92650462632231,
right,stop,2,0,2,0,2,2,14,5,854.3683679103851,None,1,0.11751794815063477,854.3683679103851,None,854.6008810997009,None,855.596834897995,855.9648389816284,855.596834897995,855.9648389816284,854.6008810997009,None,854.6008810997009,None,854.6008810997009,None,250,250,0,True,173.11382293701172,363.6507987976074,right,857.0387709140778,None,pp_08,icub,clamp,2021_Dec_22_0918,exp,2021.2.3,59.92650462632231,
left,go,2,0,2,0,2,3,15,0,857.5542559623718,None,1,0.5576210021972656,857.5542559623718,None,858.2235269546509,None,859.2167639732361,859.5604350566864,859.2167639732361,859.5604350566864,858.2235269546509,None,858.2235269546509,None,858.2235269546509,None,-1,-1,1,True,124.67551231384277,436.185359954834,left,860.693708896637,None,pp_08,icub,clamp,2021_Dec_22_0918,exp,2021.2.3,59.92650462632231,
left,go,2,0,2,0,2,4,16,1,861.2117750644684,None,1,0.12943601608276367,861.2117750644684,None,861.4479188919067,None,862.4474999904633,862.8087630271912,862.4474999904633,862.8087630271912,861.4479188919067,None,861.4479188919067,None,861.4479188919067,None,-1,-1,1,True,155.26103973388672,452.2571563720703,left,863.9466381072998,None,pp_08,icub,clamp,2021_Dec_22_0918,exp,2021.2.3,59.92650462632231,
left,stop,2,0,2,0,2,5,17,2,864.4688229560852,None,1,0.1892108917236328,864.4688229560852,None,864.7639338970184,None,865.7705080509186,866.1150870323181,865.7705080509186,866.1150870323181,864.7639338970184,None,864.7639338970184,None,864.7639338970184,None,250,200,0,True,249.6626377105713,395.66802978515625,left,867.2913839817047,None,pp_08,icub,clamp,2021_Dec_22_0918,exp,2021.2.3,59.92650462632231,
left,go,2,0,2,0,3,0,18,1,867.8107759952545,None,1,0.33382582664489746,867.8107759952545,None,868.2297489643097,None,869.2560529708862,869.6099390983582,869.2560529708862,869.6099390983582,868.2297489643097,None,868.2297489643097,None,868.2297489643097,None,-1,-1,1,True,204.67424392700195,432.1615695953369,left,870.7427880764008,None,pp_08,icub,clamp,2021_Dec_22_0918,exp,2021.2.3,59.92650462632231,
right,go,2,0,2,0,3,1,19,3,871.2592749595642,None,1,0.14432311058044434,871.2592749595642,None,871.4941871166229,None,872.5216889381409,872.8811941146851,872.5216889381409,872.8811941146851,871.4941871166229,None,871.4941871166229,None,871.4941871166229,None,-1,-1,1,True,221.74382209777832,386.1105442047119,right,874.0074961185455,None,pp_08,icub,clamp,2021_Dec_22_0918,exp,2021.2.3,59.92650462632231,
left,stop,2,0,2,0,3,2,20,2,874.5219550132751,None,1,0.09824705123901367,874.5219550132751,None,874.6953589916229,None,875.7288799285889,876.096834897995,875.7288799285889,876.096834897995,874.6953589916229,None,874.6953589916229,None,874.6953589916229,None,200,200,0,True,148.54860305786133,350.4302501678467,left,877.0905990600586,None,pp_08,icub,clamp,2021_Dec_22_0918,exp,2021.2.3,59.92650462632231,
right,stop,2,0,2,0,3,3,21,5,877.6108329296112,None,1,0.32463788986206055,877.6108329296112,None,878.030021905899,None,879.0423829555511,879.3698000907898,879.0423829555511,879.3698000907898,878.030021905899,None,878.030021905899,None,878.030021905899,None,,,0,False,3000.793218612671,-1.0,-1,882.9002289772034,None,pp_08,icub,clamp,2021_Dec_22_0918,exp,2021.2.3,59.92650462632231,
left,go,2,0,2,0,3,4,22,0,883.4348139762878,None,1,0.5562520027160645,883.4348139762878,None,884.1029570102692,None,885.1068110466003,885.4500720500946,885.1068110466003,885.4500720500946,884.1029570102692,None,884.1029570102692,None,884.1029570102692,None,-1,-1,1,True,187.19244003295898,357.9421043395996,left,886.5333049297333,None,pp_08,icub,clamp,2021_Dec_22_0918,exp,2021.2.3,59.92650462632231,
left,stop,2,0,2,0,3,5,23,2,887.0594348907471,None,1,0.18047595024108887,887.0594348907471,None,887.3538579940796,None,888.3761410713196,888.7268640995026,888.3761410713196,888.7268640995026,887.3538579940796,None,887.3538579940796,None,887.3538579940796,None,150,200,0,True,206.56418800354004,285.50028800964355,left,889.7452139854431,None,pp_08,icub,clamp,2021_Dec_22_0918,exp,2021.2.3,59.92650462632231,
left,stop,2,0,2,0,4,0,24,2,890.2649669647217,None,1,0.5898079872131348,890.2649669647217,None,890.9350790977478,None,891.9313011169434,892.2563381195068,891.9313011169434,892.2563381195068,890.9350790977478,None,890.9350790977478,None,890.9350790977478,None,100,200,1,True,152.2078514099121,-1.0,-1,895.9748160839081,None,pp_08,icub,clamp,2021_Dec_22_0918,exp,2021.2.3,59.92650462632231,
right,go,2,0,2,0,4,1,25,4,896.4691579341888,None,1,0.4533529281616211,896.4691579341888,None,897.020024061203,None,897.9971458911896,898.3401460647583,897.9971458911896,898.3401460647583,897.020024061203,None,897.020024061203,None,897.020024061203,None,-1,-1,1,True,127.46214866638184,339.2775058746338,right,899.3703300952911,None,pp_08,icub,clamp,2021_Dec_22_0918,exp,2021.2.3,59.92650462632231,
right,go,2,0,2,0,4,2,26,3,899.8920021057129,None,1,0.3108649253845215,899.8920021057129,None,900.3086020946503,None,901.341413974762,901.6876199245453,901.341413974762,901.6876199245453,900.3086020946503,None,900.3086020946503,None,900.3086020946503,None,-1,-1,1,True,187.25156784057617,327.9156684875488,right,902.7226040363312,None,pp_08,icub,clamp,2021_Dec_22_0918,exp,2021.2.3,59.92650462632231,
left,stop,2,0,2,0,4,3,27,2,903.2440159320831,None,1,0.45890283584594727,903.2440159320831,None,903.7887070178986,None,904.7776799201965,905.1250739097595,904.7776799201965,905.1250739097595,903.7887070178986,None,903.7887070178986,None,903.7887070178986,None,150,200,1,True,84.4109058380127,-1.0,-1,908.7739419937134,None,pp_08,icub,clamp,2021_Dec_22_0918,exp,2021.2.3,59.92650462632231,
left,go,2,0,2,0,4,4,28,1,909.3064880371094,None,1,0.2559089660644531,909.3064880371094,None,909.6728301048279,None,910.6572890281677,911.0175819396973,910.6572890281677,911.0175819396973,909.6728301048279,None,909.6728301048279,None,909.6728301048279,None,-1,-1,1,True,149.70874786376953,366.60313606262207,left,912.0601809024811,None,pp_08,icub,clamp,2021_Dec_22_0918,exp,2021.2.3,59.92650462632231,
left,go,2,0,2,0,4,5,29,0,912.5960609912872,None,1,0.19709110260009766,912.5960609912872,None,912.8900558948517,None,913.9021921157837,914.2502191066742,913.9021921157837,914.2502191066742,912.8900558948517,None,912.8900558948517,None,912.8900558948517,None,-1,-1,1,True,35.399436950683594,492.7694797515869,left,915.3074820041656,None,pp_08,icub,clamp,2021_Dec_22_0918,exp,2021.2.3,59.92650462632231,
right,stop,2,0,2,0,5,0,30,5,915.8197960853577,None,1,0.019867897033691406,915.8197960853577,None,915.9303529262543,None,916.9548759460449,917.2963020801544,916.9548759460449,917.2963020801544,915.9303529262543,None,915.9303529262543,None,915.9303529262543,None,200,200,0,True,158.28990936279297,336.3502025604248,right,918.3077781200409,None,pp_08,icub,clamp,2021_Dec_22_0918,exp,2021.2.3,59.92650462632231,
right,go,2,0,2,0,5,1,31,3,918.8307950496674,None,1,0.2959280014038086,918.8307950496674,None,919.2491190433502,None,920.2680969238281,920.6273639202118,920.2680969238281,920.6273639202118,919.2491190433502,None,919.2491190433502,None,919.2491190433502,None,-1,-1,1,True,56.99801445007324,370.35489082336426,right,921.5900859832764,None,pp_08,icub,clamp,2021_Dec_22_0918,exp,2021.2.3,59.92650462632231,
left,stop,2,0,2,0,5,2,32,2,922.1111650466919,None,1,0.0326080322265625,922.1111650466919,None,922.2243111133575,None,923.2136979103088,923.5717940330505,923.2136979103088,923.5717940330505,922.2243111133575,None,922.2243111133575,None,922.2243111133575,None,200,150,0,True,92.37551689147949,345.95727920532227,left,924.539351940155,None,pp_08,icub,clamp,2021_Dec_22_0918,exp,2021.2.3,59.92650462632231,
right,go,2,0,2,0,5,3,33,4,925.0556209087372,None,1,1.2326538562774658,925.0556209087372,None,926.4096040725708,None,927.4017169475555,927.747612953186,927.4017169475555,927.747612953186,926.4096040725708,None,926.4096040725708,None,926.4096040725708,None,-1,-1,1,True,123.34990501403809,370.6958293914795,right,928.7711510658264,None,pp_08,icub,clamp,2021_Dec_22_0918,exp,2021.2.3,59.92650462632231,
left,stop,2,0,2,0,5,4,34,2,929.2887799739838,None,1,0.11092019081115723,929.2887799739838,None,929.5177910327911,None,930.539402961731,930.8930358886719,930.539402961731,930.8930358886719,929.5177910327911,None,929.5177910327911,None,929.5177910327911,None,150,150,0,True,169.630765914917,296.22673988342285,left,931.8902111053467,None,pp_08,icub,clamp,2021_Dec_22_0918,exp,2021.2.3,59.92650462632231,
right,stop,2,0,2,0,5,5,35,5,932.4040429592133,None,1,0.18390893936157227,932.4040429592133,None,932.6968100070953,None,933.7123460769653,934.0640549659729,933.7123460769653,934.0640549659729,932.6968100070953,None,932.6968100070953,None,932.6968100070953,None,100,150,0,True,183.48121643066406,294.4602966308594,right,935.0670130252838,None,pp_08,icub,clamp,2021_Dec_22_0918,exp,2021.2.3,59.92650462632231,
right,stop,2,0,2,0,6,0,36,5,935.5876109600067,None,1,0.20921802520751953,935.5876109600067,None,935.8810560703278,None,936.9035060405731,937.2358651161194,936.9035060405731,937.2358651161194,935.8810560703278,None,935.8810560703278,None,935.8810560703278,None,100,100,1,True,119.83513832092285,-1.0,-1,940.8867499828339,None,pp_08,icub,clamp,2021_Dec_22_0918,exp,2021.2.3,59.92650462632231,
left,stop,2,0,2,0,6,1,37,2,941.3811099529266,None,1,0.27820611000061035,941.3811099529266,None,941.745551109314,None,942.7541561126709,943.1115839481354,942.7541561126709,943.1115839481354,941.745551109314,None,941.745551109314,None,941.745551109314,None,100,150,1,True,111.9537353515625,-1.0,-1,946.7466509342194,None,pp_08,icub,clamp,2021_Dec_22_0918,exp,2021.2.3,59.92650462632231,
left,go,2,0,2,0,6,2,38,0,947.2792620658875,None,1,0.24294090270996094,947.2792620658875,None,947.644553899765,None,948.6277959346771,948.9841110706329,948.6277959346771,948.9841110706329,947.644553899765,None,947.644553899765,None,947.644553899765,None,-1,-1,1,True,179.06546592712402,349.5066165924072,left,950.0421121120453,None,pp_08,icub,clamp,2021_Dec_22_0918,exp,2021.2.3,59.92650462632231,
right,stop,2,0,2,0,6,3,39,5,950.5627989768982,None,1,0.16279196739196777,950.5627989768982,None,950.8531091213226,None,951.8564441204071,952.2075378894806,951.8564441204071,952.2075378894806,950.8531091213226,None,950.8531091213226,None,950.8531091213226,None,150,150,1,True,172.32680320739746,-1.0,-1,955.9116089344025,None,pp_08,icub,clamp,2021_Dec_22_0918,exp,2021.2.3,59.92650462632231,
left,stop,2,0,2,0,6,4,40,2,956.443629026413,None,1,0.2605569362640381,956.443629026413,None,956.8084321022034,None,957.8079099655151,958.1761178970337,957.8079099655151,958.1761178970337,956.8084321022034,None,956.8084321022034,None,956.8084321022034,None,150,200,0,True,138.16547393798828,264.68563079833984,left,959.1067569255829,None,pp_08,icub,clamp,2021_Dec_22_0918,exp,2021.2.3,59.92650462632231,
right,go,2,0,2,0,6,5,41,3,959.6231710910797,None,1,0.8013310432434082,959.6231710910797,None,960.5396029949188,None,961.562747001648,961.924556016922,961.562747001648,961.924556016922,960.5396029949188,None,960.5396029949188,None,960.5396029949188,None,-1,-1,1,True,134.11712646484375,335.0656032562256,right,962.8887178897858,None,pp_08,icub,clamp,2021_Dec_22_0918,exp,2021.2.3,59.92650462632231,
right,go,2,0,2,0,7,0,42,4,963.4004518985748,None,1,0.1961820125579834,963.4004518985748,None,963.6973989009857,None,964.69349193573,965.0436909198761,964.69349193573,965.0436909198761,963.6973989009857,None,963.6973989009857,None,963.6973989009857,None,-1,-1,1,True,90.02876281738281,348.677396774292,right,966.0367848873138,None,pp_08,icub,clamp,2021_Dec_22_0918,exp,2021.2.3,59.92650462632231,
right,go,2,0,2,0,7,1,43,4,966.5393750667572,None,1,0.09436297416687012,966.5393750667572,None,966.7141699790955,None,967.7055790424347,968.0564799308777,967.7055790424347,968.0564799308777,966.7141699790955,None,966.7141699790955,None,966.7141699790955,None,-1,-1,1,True,188.4915828704834,313.46726417541504,right,969.092199087143,None,pp_08,icub,clamp,2021_Dec_22_0918,exp,2021.2.3,59.92650462632231,
left,go,2,0,2,0,7,2,44,1,969.5932230949402,None,1,0.13768601417541504,969.5932230949402,None,969.8316829204559,None,970.8279349803925,971.1708750724792,970.8279349803925,971.1708750724792,969.8316829204559,None,969.8316829204559,None,969.8316829204559,None,-1,-1,1,True,235.15033721923828,367.0036792755127,left,972.3038260936737,None,pp_08,icub,clamp,2021_Dec_22_0918,exp,2021.2.3,59.92650462632231,
left,go,2,0,2,0,7,3,45,0,972.8117229938507,None,1,0.1527719497680664,972.8117229938507,None,973.0447618961334,None,974.0656440258026,974.4269859790802,974.0656440258026,974.4269859790802,973.0447618961334,None,973.0447618961334,None,973.0447618961334,None,-1,-1,1,True,213.19913864135742,377.4120807647705,left,975.5387420654297,None,pp_08,icub,clamp,2021_Dec_22_0918,exp,2021.2.3,59.92650462632231,
right,stop,2,0,2,0,7,4,46,5,976.0426568984985,None,1,0.26596593856811523,976.0426568984985,None,976.3989770412445,None,977.43186211586,977.7929639816284,977.43186211586,977.7929639816284,976.3989770412445,None,976.3989770412445,None,976.3989770412445,None,100,200,0,True,132.77149200439453,347.66578674316406,right,978.7670350074768,None,pp_08,icub,clamp,2021_Dec_22_0918,exp,2021.2.3,59.92650462632231,
left,stop,2,0,2,0,7,5,47,2,979.2669589519501,None,1,0.48591017723083496,979.2669589519501,None,979.8669788837433,None,980.8934690952301,981.2574551105499,980.8934690952301,981.2574551105499,979.8669788837433,None,979.8669788837433,None,979.8669788837433,None,,,0,False,-1.0,-1.0,-1,981.7054350376129,None,pp_08,icub,clamp,2021_Dec_22_0918,exp,2021.2.3,59.92650462632231,
right,go,2,0,2,0,8,0,48,3,982.2188940048218,None,1,0.5968210697174072,982.2188940048218,None,982.9388298988342,None,983.9368870258331,984.2891719341278,983.9368870258331,984.2891719341278,982.9388298988342,None,982.9388298988342,None,982.9388298988342,None,-1,-1,1,True,132.7950954437256,390.10047912597656,right,985.3415520191193,None,pp_08,icub,clamp,2021_Dec_22_0918,exp,2021.2.3,59.92650462632231,
left,go,2,0,2,0,8,1,49,1,985.8631520271301,None,1,0.091339111328125,985.8631520271301,None,986.034754037857,None,987.0230100154877,987.3512439727783,987.0230100154877,987.3512439727783,986.034754037857,None,986.034754037857,None,986.034754037857,None,-1,-1,1,True,74.77021217346191,359.9278926849365,left,988.356901884079,None,pp_08,icub,clamp,2021_Dec_22_0918,exp,2021.2.3,59.92650462632231,
right,go,2,0,2,0,8,2,50,4,988.8791749477386,None,1,0.12859106063842773,988.8791749477386,None,989.1139800548553,None,990.1205570697784,990.4824879169464,990.1205570697784,990.4824879169464,989.1139800548553,None,989.1139800548553,None,989.1139800548553,None,-1,-1,1,True,135.5292797088623,340.2516841888428,right,991.4750049114227,None,pp_08,icub,clamp,2021_Dec_22_0918,exp,2021.2.3,59.92650462632231,
right,go,2,0,2,0,8,3,51,4,991.9883840084076,None,1,0.8186419010162354,991.9883840084076,None,992.9068710803986,None,993.8761279582977,994.2065160274506,993.8761279582977,994.2065160274506,992.9068710803986,None,992.9068710803986,None,992.9068710803986,None,-1,-1,1,True,38.99526596069336,309.34906005859375,right,995.1474061012268,None,pp_08,icub,clamp,2021_Dec_22_0918,exp,2021.2.3,59.92650462632231,
left,go,2,0,2,0,8,4,52,1,995.6663711071014,None,1,0.10423612594604492,995.6663711071014,None,995.8989539146423,None,996.893336057663,997.2361440658569,996.893336057663,997.2361440658569,995.8989539146423,None,995.8989539146423,None,995.8989539146423,None,-1,-1,1,True,43.70546340942383,320.8589553833008,left,998.1669280529022,None,pp_08,icub,clamp,2021_Dec_22_0918,exp,2021.2.3,59.92650462632231,
left,go,2,0,2,0,8,5,53,1,998.6885180473328,None,1,0.029944896697998047,998.6885180473328,None,998.7988450527191,None,999.8107340335846,1000.156268119812,999.8107340335846,1000.156268119812,998.7988450527191,None,998.7988450527191,None,998.7988450527191,None,-1,-1,1,True,158.72597694396973,356.94217681884766,left,1001.2035019397736,None,pp_08,icub,clamp,2021_Dec_22_0918,exp,2021.2.3,59.92650462632231,
left,stop,2,0,2,0,9,0,54,2,1001.738785982132,None,1,1.7712030410766602,1001.738785982132,None,1003.6398229598999,None,1004.6508700847626,1005.0050609111786,1004.6508700847626,1005.0050609111786,1003.6398229598999,None,1003.6398229598999,None,1003.6398229598999,None,100,150,1,True,165.53330421447754,-1.0,-1,1008.7029259204865,None,pp_08,icub,clamp,2021_Dec_22_0918,exp,2021.2.3,59.92650462632231,
right,go,2,0,2,0,9,1,55,4,1009.2373249530792,None,1,0.5886459350585938,1009.2373249530792,None,1009.9123530387878,None,1010.9003489017487,1011.2519299983978,1010.9003489017487,1011.2519299983978,1009.9123530387878,None,1009.9123530387878,None,1009.9123530387878,None,-1,-1,1,True,65.0796890258789,401.34692192077637,right,1012.2447390556335,None,pp_08,icub,clamp,2021_Dec_22_0918,exp,2021.2.3,59.92650462632231,
right,go,2,0,2,0,9,2,56,3,1012.7569139003754,None,1,0.1911768913269043,1012.7569139003754,None,1013.0549759864807,None,1014.0737280845642,1014.4256780147552,1014.0737280845642,1014.4256780147552,1013.0549759864807,None,1013.0549759864807,None,1013.0549759864807,None,-1,-1,1,True,114.52364921569824,390.6877040863037,right,1015.4553380012512,None,pp_08,icub,clamp,2021_Dec_22_0918,exp,2021.2.3,59.92650462632231,
right,stop,2,0,2,0,9,3,57,5,1015.9772469997406,None,1,0.033946990966796875,1015.9772469997406,None,1016.086483001709,None,1017.0880990028381,1017.4391679763794,1017.0880990028381,1017.4391679763794,1016.086483001709,None,1016.086483001709,None,1016.086483001709,None,150,150,0,True,124.52173233032227,339.53118324279785,right,1018.4337298870087,None,pp_08,icub,clamp,2021_Dec_22_0918,exp,2021.2.3,59.92650462632231,
left,go,2,0,2,0,9,4,58,1,1018.9565689563751,None,1,0.3237030506134033,1018.9565689563751,None,1019.3745639324188,None,1020.3975141048431,1020.7468919754028,1020.3975141048431,1020.7468919754028,1019.3745639324188,None,1019.3745639324188,None,1019.3745639324188,None,-1,-1,1,True,134.10496711730957,329.5178413391113,left,1021.7386569976807,None,pp_08,icub,clamp,2021_Dec_22_0918,exp,2021.2.3,59.92650462632231,
right,go,2,0,2,0,9,5,59,3,1022.2577419281006,None,1,0.21433019638061523,1022.2577419281006,None,1022.5995719432831,None,1023.5947670936584,1023.9557158946991,1023.5947670936584,1023.9557158946991,1022.5995719432831,None,1022.5995719432831,None,1022.5995719432831,None,-1,-1,1,True,108.95180702209473,348.59204292297363,right,1024.9459118843079,None,pp_08,icub,clamp,2021_Dec_22_0918,exp,2021.2.3,59.92650462632231,
right,go,2,0,2,0,10,0,60,4,1025.4747259616852,None,1,0.15721511840820312,1025.4747259616852,None,1025.764368057251,None,1026.786570072174,1027.147831916809,1026.786570072174,1027.147831916809,1025.764368057251,None,1025.764368057251,None,1025.764368057251,None,-1,-1,1,True,128.7381649017334,345.43848037719727,right,1028.1104600429535,None,pp_08,icub,clamp,2021_Dec_22_0918,exp,2021.2.3,59.92650462632231,
right,stop,2,0,2,0,10,1,61,5,1028.6254830360413,None,1,0.26299095153808594,1028.6254830360413,None,1028.9838140010834,None,1030.0112280845642,1030.3734130859375,1030.0112280845642,1030.3734130859375,1028.9838140010834,None,1028.9838140010834,None,1028.9838140010834,None,150,100,1,True,156.11672401428223,-1.0,-1,1034.0188410282135,None,pp_08,icub,clamp,2021_Dec_22_0918,exp,2021.2.3,59.92650462632231,
right,stop,2,0,2,0,10,2,62,5,1034.551815032959,None,1,0.3850369453430176,1034.551815032959,None,1035.0407030582428,None,1036.0244450569153,1036.3603730201721,1036.0244450569153,1036.3603730201721,1035.0407030582428,None,1035.0407030582428,None,1035.0407030582428,None,150,150,0,True,96.46081924438477,342.0901298522949,right,1037.3553369045258,None,pp_08,icub,clamp,2021_Dec_22_0918,exp,2021.2.3,59.92650462632231,
right,go,2,0,2,0,10,3,63,3,1037.8668270111084,None,1,1.0223920345306396,1037.8668270111084,None,1038.9695219993591,None,1039.9791810512543,1040.3308000564575,1039.9791810512543,1040.3308000564575,1038.9695219993591,None,1038.9695219993591,None,1038.9695219993591,None,-1,-1,1,True,190.0179386138916,350.7962226867676,right,1041.3833990097046,None,pp_08,icub,clamp,2021_Dec_22_0918,exp,2021.2.3,59.92650462632231,
right,go,2,0,2,0,10,4,64,3,1041.9028990268707,None,1,0.10025811195373535,1041.9028990268707,None,1042.0784389972687,None,1043.104619026184,1043.4567720890045,1043.104619026184,1043.4567720890045,1042.0784389972687,None,1042.0784389972687,None,1042.0784389972687,None,-1,-1,1,True,110.72230339050293,342.5118923187256,right,1044.4388589859009,None,pp_08,icub,clamp,2021_Dec_22_0918,exp,2021.2.3,59.92650462632231,
left,go,2,0,2,0,10,5,65,0,1044.9496200084686,None,1,0.23749494552612305,1044.9496200084686,None,1045.3069760799408,None,1046.3203868865967,1046.6745610237122,1046.3203868865967,1046.6745610237122,1045.3069760799408,None,1045.3069760799408,None,1045.3069760799408,None,-1,-1,1,True,52.53887176513672,315.4489994049072,left,1047.5741751194,None,pp_08,icub,clamp,2021_Dec_22_0918,exp,2021.2.3,59.92650462632231,
right,go,2,0,2,0,11,0,66,4,1048.096069097519,None,1,0.20306396484375,1048.096069097519,None,1048.378345966339,None,1049.3752980232239,1049.7294590473175,1049.3752980232239,1049.7294590473175,1048.378345966339,None,1048.378345966339,None,1048.378345966339,None,-1,-1,1,True,128.1893253326416,339.25461769104004,right,1050.7516860961914,None,pp_08,icub,clamp,2021_Dec_22_0918,exp,2021.2.3,59.92650462632231,
right,stop,2,0,2,0,11,1,67,5,1051.2625889778137,None,1,0.2546830177307129,1051.2625889778137,None,1051.6231150627136,None,1052.620404958725,1052.9801049232483,1052.620404958725,1052.9801049232483,1051.6231150627136,None,1051.6231150627136,None,1051.6231150627136,None,150,100,0,True,302.4787902832031,328.8722038269043,right,1054.1324319839478,None,pp_08,icub,clamp,2021_Dec_22_0918,exp,2021.2.3,59.92650462632231,
right,stop,2,0,2,0,11,2,68,5,1054.6549050807953,None,1,0.6723918914794922,1054.6549050807953,None,1055.447312116623,None,1056.4395699501038,1056.7974770069122,1056.4395699501038,1056.7974770069122,1055.447312116623,None,1055.447312116623,None,1055.447312116623,None,150,50,1,True,143.73326301574707,-1.0,-1,1060.4709250926971,None,pp_08,icub,clamp,2021_Dec_22_0918,exp,2021.2.3,59.92650462632231,
left,stop,2,0,2,0,11,3,69,2,1060.9665141105652,None,1,0.2791450023651123,1060.9665141105652,None,1061.330943107605,None,1062.3085169792175,1062.6561799049377,1062.3085169792175,1062.6561799049377,1061.330943107605,None,1061.330943107605,None,1061.330943107605,None,150,100,0,True,105.93080520629883,328.8252353668213,left,1063.6446878910065,None,pp_08,icub,clamp,2021_Dec_22_0918,exp,2021.2.3,59.92650462632231,
left,go,2,0,2,0,11,4,70,0,1064.1640439033508,None,1,0.5681748390197754,1064.1640439033508,None,1064.8329329490662,None,1065.8348240852356,1066.1811249256134,1065.8348240852356,1066.1811249256134,1064.8329329490662,None,1064.8329329490662,None,1064.8329329490662,None,-1,-1,1,True,155.1060676574707,313.4903907775879,left,1067.1838989257812,None,pp_08,icub,clamp,2021_Dec_22_0918,exp,2021.2.3,59.92650462632231,
left,go,2,0,2,0,11,5,71,1,1067.6967658996582,None,1,0.20455408096313477,1067.6967658996582,None,1067.9897730350494,None,1068.9988338947296,1069.342873096466,1068.9988338947296,1069.342873096466,1067.9897730350494,None,1067.9897730350494,None,1067.9897730350494,None,-1,-1,1,True,124.73535537719727,329.8516273498535,left,1070.33731508255,None,pp_08,icub,clamp,2021_Dec_22_0918,exp,2021.2.3,59.92650462632231,
right,go,2,0,2,0,12,0,72,3,1070.856740951538,None,1,0.1072239875793457,1070.856740951538,None,1071.0881080627441,None,1072.1143279075623,1072.4524729251862,1072.1143279075623,1072.4524729251862,1071.0881080627441,None,1071.0881080627441,None,1071.0881080627441,None,-1,-1,1,True,181.33878707885742,291.6736602783203,right,1073.4373950958252,None,pp_08,icub,clamp,2021_Dec_22_0918,exp,2021.2.3,59.92650462632231,
left,go,2,0,2,0,12,1,73,1,1073.959235906601,None,1,0.15276384353637695,1073.959235906601,None,1074.1922659873962,None,1075.2068479061127,1075.5527739524841,1075.2068479061127,1075.5527739524841,1074.1922659873962,None,1074.1922659873962,None,1074.1922659873962,None,-1,-1,1,True,150.20322799682617,310.0106716156006,left,1076.5443720817566,None,pp_08,icub,clamp,2021_Dec_22_0918,exp,2021.2.3,59.92650462632231,
right,go,2,0,2,0,12,2,74,4,1077.0638370513916,None,1,0.08143496513366699,1077.0638370513916,None,1077.2359459400177,None,1078.2472259998322,1078.5992379188538,1078.2472259998322,1078.5992379188538,1077.2359459400177,None,1077.2359459400177,None,1077.2359459400177,None,-1,-1,1,True,65.12594223022461,327.94189453125,right,1079.5007469654083,None,pp_08,icub,clamp,2021_Dec_22_0918,exp,2021.2.3,59.92650462632231,
right,go,2,0,2,0,12,3,75,3,1080.0195949077606,None,1,0.2174990177154541,1080.0195949077606,None,1080.317584991455,None,1081.3209590911865,1081.672928094864,1081.3209590911865,1081.672928094864,1080.317584991455,None,1080.317584991455,None,1080.317584991455,None,-1,-1,1,True,219.29240226745605,289.2787456512451,right,1082.7114160060883,None,pp_08,icub,clamp,2021_Dec_22_0918,exp,2021.2.3,59.92650462632231,
left,go,2,0,2,0,12,4,76,0,1083.2228429317474,None,1,0.19911503791809082,1083.2228429317474,None,1083.5174279212952,None,1084.5199990272522,1084.8786880970001,1084.5199990272522,1084.8786880970001,1083.5174279212952,None,1083.5174279212952,None,1083.5174279212952,None,-1,-1,1,True,126.13582611083984,304.6071529388428,left,1085.8421790599823,None,pp_08,icub,clamp,2021_Dec_22_0918,exp,2021.2.3,59.92650462632231,
left,go,2,0,2,0,12,5,77,1,1086.3635120391846,None,1,0.09840106964111328,1086.3635120391846,None,1086.5949759483337,None,1087.5985860824585,1087.9650559425354,1087.5985860824585,1087.9650559425354,1086.5949759483337,None,1086.5949759483337,None,1086.5949759483337,None,-1,-1,1,True,196.0897445678711,265.9628391265869,left,1088.954236984253,None,pp_08,icub,clamp,2021_Dec_22_0918,exp,2021.2.3,59.92650462632231,
left,stop,3,0,3,0,0,0,0,2,1107.2795190811157,None,1,7.310468912124634,1107.2795190811157,None,1114.6965789794922,None,1115.7105419635773,1116.057804107666,1115.7105419635773,1116.057804107666,1114.6965789794922,None,1114.6965789794922,None,1114.6965789794922,None,100,100,1,True,141.20912551879883,-1.0,-1,1119.7286100387573,None,pp_08,icub,clamp,2021_Dec_22_0918,exp,2021.2.3,59.92650462632231,
left,stop,3,0,3,0,0,1,1,2,1120.2625460624695,None,1,0.31589293479919434,1120.2625460624695,None,1120.6894960403442,None,1121.6733169555664,1122.0310308933258,1121.6733169555664,1122.0310308933258,1120.6894960403442,None,1120.6894960403442,None,1120.6894960403442,None,150,100,1,True,152.61483192443848,-1.0,-1,1125.7438869476318,None,pp_08,icub,clamp,2021_Dec_22_0918,exp,2021.2.3,59.92650462632231,
right,stop,3,0,3,0,0,2,2,5,1126.276526927948,None,1,0.2548527717590332,1126.276526927948,None,1126.643208026886,None,1127.6280748844147,1127.9934248924255,1127.6280748844147,1127.9934248924255,1126.643208026886,None,1126.643208026886,None,1126.643208026886,None,200,100,0,True,57.09552764892578,348.59776496887207,right,1128.9363379478455,None,pp_08,icub,clamp,2021_Dec_22_0918,exp,2021.2.3,59.92650462632231,
left,go,3,0,3,0,0,3,3,0,1129.4376420974731,None,1,0.38750505447387695,1129.4376420974731,None,1129.9187099933624,None,1130.9166119098663,1131.2800779342651,1130.9166119098663,1131.2800779342651,1129.9187099933624,None,1129.9187099933624,None,1129.9187099933624,None,-1,-1,1,True,87.32008934020996,343.2507514953613,left,1132.2469580173492,None,pp_08,icub,clamp,2021_Dec_22_0918,exp,2021.2.3,59.92650462632231,
left,stop,3,0,3,0,0,4,4,2,1132.769082069397,None,1,0.0890359878540039,1132.769082069397,None,1132.93412899971,None,1133.950975894928,1134.3064420223236,1133.950975894928,1134.3064420223236,1132.93412899971,None,1132.93412899971,None,1132.93412899971,None,200,50,0,True,76.62677764892578,331.1045169830322,left,1135.2432329654694,None,pp_08,icub,clamp,2021_Dec_22_0918,exp,2021.2.3,59.92650462632231,
left,go,3,0,3,0,0,5,5,0,1135.7471120357513,None,1,0.23784995079040527,1135.7471120357513,None,1136.1034479141235,None,1137.125056028366,1137.4953939914703,1137.125056028366,1137.4953939914703,1136.1034479141235,None,1136.1034479141235,None,1136.1034479141235,None,-1,-1,1,True,148.06103706359863,310.40096282958984,left,1138.449935913086,None,pp_08,icub,clamp,2021_Dec_22_0918,exp,2021.2.3,59.92650462632231,
right,go,3,0,3,0,1,0,6,4,1138.9690608978271,None,1,0.03887605667114258,1138.9690608978271,None,1139.13551902771,None,1140.1494400501251,1140.5044860839844,1140.1494400501251,1140.5044860839844,1139.13551902771,None,1139.13551902771,None,1139.13551902771,None,-1,-1,1,True,60.68611145019531,317.1091079711914,right,1141.4060440063477,None,pp_08,icub,clamp,2021_Dec_22_0918,exp,2021.2.3,59.92650462632231,
left,stop,3,0,3,0,1,1,7,2,1141.9106030464172,None,1,0.13504290580749512,1141.9106030464172,None,1142.1470420360565,None,1143.1404659748077,1143.4978170394897,1143.1404659748077,1143.4978170394897,1142.1470420360565,None,1142.1470420360565,None,1142.1470420360565,None,150,50,0,True,78.8426399230957,303.03120613098145,left,1144.4073209762573,None,pp_08,icub,clamp,2021_Dec_22_0918,exp,2021.2.3,59.92650462632231,
right,stop,3,0,3,0,1,2,8,5,1144.9364159107208,None,1,0.2608168125152588,1144.9364159107208,None,1145.2982668876648,None,1146.308032989502,1146.6725149154663,1146.308032989502,1146.6725149154663,1145.2982668876648,None,1145.2982668876648,None,1145.2982668876648,None,100,50,1,True,40.79413414001465,-1.0,-1,1150.249172925949,None,pp_08,icub,clamp,2021_Dec_22_0918,exp,2021.2.3,59.92650462632231,
right,stop,3,0,3,0,1,3,9,5,1150.7441101074219,None,1,0.2441270351409912,1150.7441101074219,None,1151.1087670326233,None,1152.0840640068054,1152.4141509532928,1152.0840640068054,1152.4141509532928,1151.1087670326233,None,1151.1087670326233,None,1151.1087670326233,None,100,100,1,True,50.46272277832031,-1.0,-1,1156.041384935379,None,pp_08,icub,clamp,2021_Dec_22_0918,exp,2021.2.3,59.92650462632231,
left,go,3,0,3,0,1,4,10,0,1156.5744559764862,None,1,0.3345329761505127,1156.5744559764862,None,1157.002207994461,None,1157.97877907753,1158.3192451000214,1157.97877907753,1158.3192451000214,1157.002207994461,None,1157.002207994461,None,1157.002207994461,None,-1,-1,1,True,42.38080978393555,356.4012050628662,left,1159.290165901184,None,pp_08,icub,clamp,2021_Dec_22_0918,exp,2021.2.3,59.92650462632231,
left,go,3,0,3,0,1,5,11,0,1159.8126640319824,None,1,0.19387483596801758,1159.8126640319824,None,1160.107125043869,None,1161.1115539073944,1161.4605569839478,1161.1115539073944,1161.4605569839478,1160.107125043869,None,1160.107125043869,None,1160.107125043869,None,-1,-1,1,True,85.7698917388916,353.47771644592285,left,1162.4306800365448,None,pp_08,icub,clamp,2021_Dec_22_0918,exp,2021.2.3,59.92650462632231,
