Holder,Action,blocks.thisRepN,blocks.thisTrialN,blocks.thisN,blocks.thisIndex,trials.thisRepN,trials.thisTrialN,trials.thisN,trials.thisIndex,start_msg.started,start_msg.stopped,RespButton_start_trial.keys,RespButton_start_trial.rt,RespButton_start_trial.started,RespButton_start_trial.stopped,GREEN.started,GREEN.stopped,LEFT_RED.started,LEFT_RED.stopped,RIGHT_RED.started,RIGHT_RED.stopped,LEFT_CIRCLE.started,LEFT_CIRCLE.stopped,CENTER_CIRCLE.started,CENTER_CIRCLE.stopped,RIGHT_CIRCLE.started,RIGHT_CIRCLE.stopped,SOUND_DELAY_MS_LEFT,SOUND_DELAY_MS_RIGHT,CORRECT,VALIDITY,RELEASE_TIME,TOUCH_TIME,BOTTLE_RESPONSE_POSITION,text.started,text.stopped,pid,left_position,right_position,date,expName,psychopyVersion,frameRate,
left,go,0,0,0,0,0,0,0,1,31.44910478591919,None,1,18.778702974319458,31.44910478591919,None,50.336734771728516,None,51.33198595046997,51.68741583824158,51.33198595046997,51.68741583824158,50.336734771728516,None,50.336734771728516,None,50.336734771728516,None,-1,-1,1,True,285.999059677124,474.4873046875,left,52.98741888999939,None,pp_01,icub,clamp,2021_Dec_20_1613,exp,2021.2.3,59.97860717860718,
right,stop,0,0,0,0,0,1,1,5,53.49066877365112,None,1,0.11486005783081055,53.49066877365112,None,53.71895694732666,None,54.718618869781494,55.08169388771057,54.718618869781494,55.08169388771057,53.71895694732666,None,53.71895694732666,None,53.71895694732666,None,,,0,False,-1.0,-1.0,-1,55.23062086105347,None,pp_01,icub,clamp,2021_Dec_20_1613,exp,2021.2.3,59.97860717860718,
left,stop,0,0,0,0,0,2,2,2,55.75043296813965,None,1,0.5636379718780518,55.75043296813965,None,56.40977597236633,None,57.404637813568115,57.76018190383911,57.404637813568115,57.76018190383911,56.40977597236633,None,56.40977597236633,None,56.40977597236633,None,500,500,0,True,365.65661430358887,361.1123561859131,left,59.009692907333374,None,pp_01,icub,clamp,2021_Dec_20_1613,exp,2021.2.3,59.97860717860718,
left,stop,0,0,0,0,0,3,3,2,59.519330978393555,None,1,0.3214449882507324,59.519330978393555,None,59.94083786010742,None,60.9486939907074,61.312888860702515,60.9486939907074,61.312888860702515,59.94083786010742,None,59.94083786010742,None,59.94083786010742,None,450,500,0,True,50.240278244018555,523.4158039093018,left,62.41946578025818,None,pp_01,icub,clamp,2021_Dec_20_1613,exp,2021.2.3,59.97860717860718,
right,go,0,0,0,0,0,4,4,4,62.930208921432495,None,1,0.2721102237701416,62.930208921432495,None,63.28783679008484,None,64.28092885017395,64.632159948349,64.28092885017395,64.632159948349,63.28783679008484,None,63.28783679008484,None,63.28783679008484,None,-1,-1,1,True,304.3322563171387,361.28878593444824,right,65.84002184867859,None,pp_01,icub,clamp,2021_Dec_20_1613,exp,2021.2.3,59.97860717860718,
left,go,0,0,0,0,0,5,5,1,66.35771083831787,None,1,0.02772688865661621,66.35771083831787,None,66.47086381912231,None,67.48498797416687,67.83848190307617,67.48498797416687,67.83848190307617,66.47086381912231,None,66.47086381912231,None,66.47086381912231,None,-1,-1,1,True,292.35029220581055,344.846248626709,left,69.00621294975281,None,pp_01,icub,clamp,2021_Dec_20_1613,exp,2021.2.3,59.97860717860718,
left,stop,0,0,0,0,1,0,6,2,69.51920986175537,None,1,0.059419870376586914,69.51920986175537,None,69.68854784965515,None,70.69277691841125,71.04655385017395,70.69277691841125,71.04655385017395,69.68854784965515,None,69.68854784965515,None,69.68854784965515,None,400,500,0,True,321.1045265197754,388.29660415649414,left,72.28107190132141,None,pp_01,icub,clamp,2021_Dec_20_1613,exp,2021.2.3,59.97860717860718,
left,go,0,0,0,0,1,1,7,1,72.79507994651794,None,1,0.04359793663024902,72.79507994651794,None,72.96269989013672,None,73.97897577285767,74.33134484291077,73.97897577285767,74.33134484291077,72.96269989013672,None,72.96269989013672,None,72.96269989013672,None,-1,-1,1,True,272.3507881164551,387.16673851013184,left,75.51678586006165,None,pp_01,icub,clamp,2021_Dec_20_1613,exp,2021.2.3,59.97860717860718,
right,go,0,0,0,0,1,2,8,4,76.02776885032654,None,1,0.10058712959289551,76.02776885032654,None,76.25714588165283,None,77.27377200126648,77.60071778297424,77.27377200126648,77.60071778297424,76.25714588165283,None,76.25714588165283,None,76.25714588165283,None,-1,-1,1,True,276.51023864746094,342.3638343811035,right,78.74716782569885,None,pp_01,icub,clamp,2021_Dec_20_1613,exp,2021.2.3,59.97860717860718,
right,go,0,0,0,0,1,3,9,3,79.2563488483429,None,1,0.11731290817260742,79.2563488483429,None,79.48805093765259,None,80.51850080490112,80.861820936203,80.51850080490112,80.861820936203,79.48805093765259,None,79.48805093765259,None,79.48805093765259,None,,,0,False,3000.1301765441895,-1.0,-1,84.39582395553589,None,pp_01,icub,clamp,2021_Dec_20_1613,exp,2021.2.3,59.97860717860718,
left,go,0,0,0,0,1,4,10,0,84.888267993927,None,1,0.4877791404724121,84.888267993927,None,85.50085496902466,None,86.47523188591003,86.83318185806274,86.47523188591003,86.83318185806274,85.50085496902466,None,85.50085496902466,None,85.50085496902466,None,-1,-1,1,True,408.8289737701416,485.00871658325195,left,88.26488280296326,None,pp_01,icub,clamp,2021_Dec_20_1613,exp,2021.2.3,59.97860717860718,
left,stop,0,0,0,0,1,5,11,2,88.7708067893982,None,1,0.12761402130126953,88.7708067893982,None,89.00537300109863,None,90.03447198867798,90.38975477218628,90.03447198867798,90.38975477218628,89.00537300109863,None,89.00537300109863,None,89.00537300109863,None,350,500,0,True,307.3163032531738,435.8651638031006,left,91.6287407875061,None,pp_01,icub,clamp,2021_Dec_20_1613,exp,2021.2.3,59.97860717860718,
right,go,0,0,0,0,2,0,12,4,92.14948582649231,None,1,0.11557602882385254,92.14948582649231,None,92.3850347995758,None,93.41366481781006,93.77713179588318,93.41366481781006,93.77713179588318,92.3850347995758,None,92.3850347995758,None,92.3850347995758,None,-1,-1,1,True,135.29229164123535,418.4727668762207,right,94.85145998001099,None,pp_01,icub,clamp,2021_Dec_20_1613,exp,2021.2.3,59.97860717860718,
right,stop,0,0,0,0,2,1,13,5,95.36327695846558,None,1,0.040328025817871094,95.36327695846558,None,95.53301882743835,None,96.5254578590393,96.87767481803894,96.5254578590393,96.87767481803894,95.53301882743835,None,95.53301882743835,None,95.53301882743835,None,300,500,0,True,350.5740165710449,406.01205825805664,right,98.20384383201599,None,pp_01,icub,clamp,2021_Dec_20_1613,exp,2021.2.3,59.97860717860718,
left,go,0,0,0,0,2,2,14,0,98.73550581932068,None,1,0.0853118896484375,98.73550581932068,None,98.90621185302734,None,99.90831685066223,100.26737999916077,99.90831685066223,100.26737999916077,98.90621185302734,None,98.90621185302734,None,98.90621185302734,None,-1,-1,1,True,213.42134475708008,332.6854705810547,left,101.34596681594849,None,pp_01,icub,clamp,2021_Dec_20_1613,exp,2021.2.3,59.97860717860718,
right,go,0,0,0,0,2,3,15,3,101.85088896751404,None,1,0.09325003623962402,101.85088896751404,None,102.02459383010864,None,103.0224289894104,103.38277292251587,103.0224289894104,103.38277292251587,102.02459383010864,None,102.02459383010864,None,102.02459383010864,None,-1,-1,1,True,239.0446662902832,277.4503231048584,right,104.42941999435425,None,pp_01,icub,clamp,2021_Dec_20_1613,exp,2021.2.3,59.97860717860718,
right,stop,0,0,0,0,2,4,16,5,104.94379782676697,None,1,0.15259099006652832,104.94379782676697,None,105.17689085006714,None,106.18481683731079,106.53498983383179,106.18481683731079,106.53498983383179,105.17689085006714,None,105.17689085006714,None,105.17689085006714,None,300,450,0,True,67.50726699829102,318.5577392578125,right,107.45464777946472,None,pp_01,icub,clamp,2021_Dec_20_1613,exp,2021.2.3,59.97860717860718,
left,stop,0,0,0,0,2,5,17,2,107.96160387992859,None,1,0.21668291091918945,107.96160387992859,None,108.2586989402771,None,109.27067184448242,109.62021780014038,109.27067184448242,109.62021780014038,108.2586989402771,None,108.2586989402771,None,108.2586989402771,None,300,400,0,True,301.71799659729004,392.49229431152344,left,110.85368394851685,None,pp_01,icub,clamp,2021_Dec_20_1613,exp,2021.2.3,59.97860717860718,
right,stop,0,0,0,0,3,0,18,5,111.35735297203064,None,1,0.22071409225463867,111.35735297203064,None,111.70039486885071,None,112.69981288909912,113.04711890220642,112.69981288909912,113.04711890220642,111.70039486885071,None,111.70039486885071,None,111.70039486885071,None,250,400,0,True,338.5429382324219,488.173246383667,right,114.40369176864624,None,pp_01,icub,clamp,2021_Dec_20_1613,exp,2021.2.3,59.97860717860718,
right,stop,0,0,0,0,3,1,19,5,114.92046689987183,None,1,0.3620898723602295,114.92046689987183,None,115.39807796478271,None,116.42224884033203,116.7761058807373,116.42224884033203,116.7761058807373,115.39807796478271,None,115.39807796478271,None,115.39807796478271,None,250,350,1,True,362.3824119567871,-1.0,-1,120.6765809059143,None,pp_01,icub,clamp,2021_Dec_20_1613,exp,2021.2.3,59.97860717860718,
right,go,0,0,0,0,3,2,20,3,121.17158889770508,None,1,0.16711187362670898,121.17158889770508,None,121.4744598865509,None,122.44593000411987,122.81091499328613,122.44593000411987,122.81091499328613,121.4744598865509,None,121.4744598865509,None,121.4744598865509,None,-1,-1,1,True,294.7361469268799,541.3048267364502,right,124.17855787277222,None,pp_01,icub,clamp,2021_Dec_20_1613,exp,2021.2.3,59.97860717860718,
left,stop,0,0,0,0,3,3,21,2,124.71050477027893,None,1,0.12577414512634277,124.71050477027893,None,124.94107985496521,None,125.93523693084717,126.29347681999207,125.93523693084717,126.29347681999207,124.94107985496521,None,124.94107985496521,None,124.94107985496521,None,250,400,1,True,353.41572761535645,-1.0,-1,130.1758909225464,None,pp_01,icub,clamp,2021_Dec_20_1613,exp,2021.2.3,59.97860717860718,
right,go,0,0,0,0,3,4,22,3,130.70673179626465,None,1,0.02889704704284668,130.70673179626465,None,130.8246648311615,None,131.80480098724365,132.1725800037384,131.80480098724365,132.1725800037384,130.8246648311615,None,130.8246648311615,None,130.8246648311615,None,-1,-1,1,True,319.50902938842773,600.123405456543,right,133.62233781814575,None,pp_01,icub,clamp,2021_Dec_20_1613,exp,2021.2.3,59.97860717860718,
right,stop,0,0,0,0,3,5,23,5,134.14050793647766,None,1,0.1566619873046875,134.14050793647766,None,134.3726418018341,None,135.3797688484192,135.72702383995056,135.3797688484192,135.72702383995056,134.3726418018341,None,134.3726418018341,None,134.3726418018341,None,300,400,0,True,323.2617378234863,513.8735771179199,right,137.08958792686462,None,pp_01,icub,clamp,2021_Dec_20_1613,exp,2021.2.3,59.97860717860718,
right,go,0,0,0,0,4,0,24,4,137.6074299812317,None,1,0.5346879959106445,137.6074299812317,None,138.270015001297,None,139.29567098617554,139.65391397476196,139.29567098617554,139.65391397476196,138.270015001297,None,138.270015001297,None,138.270015001297,None,-1,-1,1,True,636.1157894134521,727.6866436004639,right,141.53741788864136,None,pp_01,icub,clamp,2021_Dec_20_1613,exp,2021.2.3,59.97860717860718,
left,go,0,0,0,0,4,1,25,0,142.05377078056335,None,1,0.1340799331665039,142.05377078056335,None,142.28781390190125,None,143.29917788505554,143.6586718559265,143.29917788505554,143.6586718559265,142.28781390190125,None,142.28781390190125,None,142.28781390190125,None,-1,-1,1,True,312.97779083251953,761.7316246032715,left,145.25169777870178,None,pp_01,icub,clamp,2021_Dec_20_1613,exp,2021.2.3,59.97860717860718,
right,stop,0,0,0,0,4,2,26,5,145.78927087783813,None,1,2.5523390769958496,145.78927087783813,None,148.43507194519043,None,149.41816592216492,149.7811849117279,149.41816592216492,149.7811849117279,148.43507194519043,None,148.43507194519043,None,148.43507194519043,None,300,350,1,True,159.47198867797852,-1.0,-1,153.47068881988525,None,pp_01,icub,clamp,2021_Dec_20_1613,exp,2021.2.3,59.97860717860718,
right,stop,0,0,0,0,4,3,27,5,154.00110793113708,None,1,0.28632593154907227,154.00110793113708,None,154.36614990234375,None,155.3393747806549,155.6874008178711,155.3393747806549,155.6874008178711,154.36614990234375,None,154.36614990234375,None,154.36614990234375,None,300,400,1,True,346.3451862335205,-1.0,-1,159.59701299667358,None,pp_01,icub,clamp,2021_Dec_20_1613,exp,2021.2.3,59.97860717860718,
right,go,0,0,0,0,4,4,28,3,160.12685084342957,None,1,0.3505690097808838,160.12685084342957,None,160.61417388916016,None,161.59598684310913,161.95463180541992,161.59598684310913,161.95463180541992,160.61417388916016,None,160.61417388916016,None,160.61417388916016,None,-1,-1,1,True,302.51336097717285,573.8956928253174,right,163.36284589767456,None,pp_01,icub,clamp,2021_Dec_20_1613,exp,2021.2.3,59.97860717860718,
right,stop,0,0,0,0,4,5,29,5,163.8759388923645,None,1,0.09702587127685547,163.8759388923645,None,164.04838180541992,None,165.0535237789154,165.41544389724731,165.0535237789154,165.41544389724731,164.04838180541992,None,164.04838180541992,None,164.04838180541992,None,300,450,0,True,332.49354362487793,570.2958106994629,right,166.8535749912262,None,pp_01,icub,clamp,2021_Dec_20_1613,exp,2021.2.3,59.97860717860718,
left,go,0,0,0,0,5,0,30,0,167.3497347831726,None,1,0.6385362148284912,167.3497347831726,None,168.07898688316345,None,169.08287596702576,169.44458079338074,169.08287596702576,169.44458079338074,168.07898688316345,None,168.07898688316345,None,168.07898688316345,None,-1,-1,1,True,266.2496566772461,757.4810981750488,left,170.99120092391968,None,pp_01,icub,clamp,2021_Dec_20_1613,exp,2021.2.3,59.97860717860718,
right,go,0,0,0,0,5,1,31,3,171.49624490737915,None,1,3.110139846801758,171.49624490737915,None,174.69482588768005,None,175.6731779575348,176.03287291526794,175.6731779575348,176.03287291526794,174.69482588768005,None,174.69482588768005,None,174.69482588768005,None,-1,-1,1,True,300.22215843200684,703.7627696990967,right,177.58572578430176,None,pp_01,icub,clamp,2021_Dec_20_1613,exp,2021.2.3,59.97860717860718,
right,stop,0,0,0,0,5,2,32,5,178.0953447818756,None,1,0.0635840892791748,178.0953447818756,None,178.26765394210815,None,179.27595782279968,179.61508893966675,179.27595782279968,179.61508893966675,178.26765394210815,None,178.26765394210815,None,178.26765394210815,None,300,400,1,True,490.6153678894043,-1.0,-1,183.66138982772827,None,pp_01,icub,clamp,2021_Dec_20_1613,exp,2021.2.3,59.97860717860718,
left,go,0,0,0,0,5,3,33,1,184.19330883026123,None,1,0.36800408363342285,184.19330883026123,None,184.68155193328857,None,185.66156482696533,186.00527691841125,185.66156482696533,186.00527691841125,184.68155193328857,None,184.68155193328857,None,184.68155193328857,None,-1,-1,1,True,325.5460262298584,621.3057041168213,left,187.52344393730164,None,pp_01,icub,clamp,2021_Dec_20_1613,exp,2021.2.3,59.97860717860718,
right,go,0,0,0,0,5,4,34,3,188.04329681396484,None,1,1.5009939670562744,188.04329681396484,None,189.67900490760803,None,190.6634178161621,191.02056097984314,190.6634178161621,191.02056097984314,189.67900490760803,None,189.67900490760803,None,189.67900490760803,None,-1,-1,1,True,353.20067405700684,654.6032428741455,right,192.55423188209534,None,pp_01,icub,clamp,2021_Dec_20_1613,exp,2021.2.3,59.97860717860718,
left,stop,0,0,0,0,5,5,35,2,193.07968282699585,None,1,0.6808390617370605,193.07968282699585,None,193.85600185394287,None,194.8389928340912,195.18599486351013,194.8389928340912,195.18599486351013,193.85600185394287,None,193.85600185394287,None,193.85600185394287,None,300,450,1,True,405.73835372924805,-1.0,-1,199.12697196006775,None,pp_01,icub,clamp,2021_Dec_20_1613,exp,2021.2.3,59.97860717860718,
right,go,0,0,0,0,6,0,36,3,199.64254999160767,None,1,0.28168702125549316,199.64254999160767,None,200.00774693489075,None,200.98802995681763,201.3437569141388,200.98802995681763,201.3437569141388,200.00774693489075,None,200.00774693489075,None,200.00774693489075,None,-1,-1,1,True,394.7255611419678,438.3397102355957,right,202.74346280097961,None,pp_01,icub,clamp,2021_Dec_20_1613,exp,2021.2.3,59.97860717860718,
left,go,0,0,0,0,6,1,37,1,203.26402688026428,None,1,1.258206844329834,203.26402688026428,None,204.66214299201965,None,205.63728094100952,205.9990508556366,205.63728094100952,205.9990508556366,204.66214299201965,None,204.66214299201965,None,204.66214299201965,None,-1,-1,1,True,379.3811798095703,601.4890670776367,left,207.52315998077393,None,pp_01,icub,clamp,2021_Dec_20_1613,exp,2021.2.3,59.97860717860718,
right,go,0,0,0,0,6,2,38,3,208.04504299163818,None,1,0.08379817008972168,208.04504299163818,None,208.2191867828369,None,209.21359181404114,209.5697238445282,209.21359181404114,209.5697238445282,208.2191867828369,None,208.2191867828369,None,208.2191867828369,None,-1,-1,1,True,322.3111629486084,661.7162227630615,right,211.07910084724426,None,pp_01,icub,clamp,2021_Dec_20_1613,exp,2021.2.3,59.97860717860718,
right,go,0,0,0,0,6,3,39,4,211.58106398582458,None,1,0.5859229564666748,211.58106398582458,None,212.27597379684448,None,213.30002188682556,213.65475583076477,213.30002188682556,213.65475583076477,212.27597379684448,None,212.27597379684448,None,212.27597379684448,None,-1,-1,1,True,337.3689651489258,633.002758026123,right,215.147784948349,None,pp_01,icub,clamp,2021_Dec_20_1613,exp,2021.2.3,59.97860717860718,
left,stop,0,0,0,0,6,4,40,2,215.66121292114258,None,1,0.0868840217590332,215.66121292114258,None,215.83338499069214,None,216.84008288383484,217.20584797859192,216.84008288383484,217.20584797859192,215.83338499069214,None,215.83338499069214,None,215.83338499069214,None,350,450,1,True,305.8161735534668,-1.0,-1,221.04366993904114,None,pp_01,icub,clamp,2021_Dec_20_1613,exp,2021.2.3,59.97860717860718,
right,go,0,0,0,0,6,5,41,4,221.57480478286743,None,1,0.5194098949432373,221.57480478286743,None,222.18720984458923,None,223.1661458015442,223.52757287025452,223.1661458015442,223.52757287025452,222.18720984458923,None,222.18720984458923,None,222.18720984458923,None,-1,-1,1,True,355.9243679046631,647.1843719482422,right,225.0628387928009,None,pp_01,icub,clamp,2021_Dec_20_1613,exp,2021.2.3,59.97860717860718,
left,go,0,0,0,0,7,0,42,1,225.5779309272766,None,1,0.5349559783935547,225.5779309272766,None,226.2029688358307,None,227.2194628715515,227.57776498794556,227.2194628715515,227.57776498794556,226.2029688358307,None,226.2029688358307,None,226.2029688358307,None,-1,-1,1,True,277.2953510284424,635.584831237793,left,229.02204585075378,None,pp_01,icub,clamp,2021_Dec_20_1613,exp,2021.2.3,59.97860717860718,
left,stop,0,0,0,0,7,1,43,2,229.52232694625854,None,1,0.34958887100219727,229.52232694625854,None,230.00068283081055,None,231.0125858783722,231.36979699134827,231.0125858783722,231.36979699134827,230.00068283081055,None,230.00068283081055,None,230.00068283081055,None,400,450,1,True,347.393274307251,-1.0,-1,235.24630188941956,None,pp_01,icub,clamp,2021_Dec_20_1613,exp,2021.2.3,59.97860717860718,
right,go,0,0,0,0,7,2,44,3,235.77718496322632,None,1,0.4799330234527588,235.77718496322632,None,236.38805198669434,None,237.39778900146484,237.74785900115967,237.39778900146484,237.74785900115967,236.38805198669434,None,236.38805198669434,None,236.38805198669434,None,-1,-1,1,True,358.81662368774414,400.03228187561035,right,239.02413487434387,None,pp_01,icub,clamp,2021_Dec_20_1613,exp,2021.2.3,59.97860717860718,
right,go,0,0,0,0,7,3,45,4,239.5506718158722,None,1,0.034169912338256836,239.5506718158722,None,239.6606388092041,None,240.6465368270874,241.00256395339966,240.6465368270874,241.00256395339966,239.6606388092041,None,239.6606388092041,None,239.6606388092041,None,-1,-1,1,True,382.37476348876953,674.3865013122559,right,242.61508893966675,None,pp_01,icub,clamp,2021_Dec_20_1613,exp,2021.2.3,59.97860717860718,
right,go,0,0,0,0,7,4,46,3,243.11753392219543,None,1,0.5766339302062988,243.11753392219543,None,243.78132677078247,None,244.76478695869446,245.09899377822876,244.76478695869446,245.09899377822876,243.78132677078247,None,243.78132677078247,None,243.78132677078247,None,-1,-1,1,True,429.1417598724365,341.5045738220215,right,246.43429684638977,None,pp_01,icub,clamp,2021_Dec_20_1613,exp,2021.2.3,59.97860717860718,
left,go,0,0,0,0,7,5,47,0,246.95501899719238,None,1,0.3446681499481201,246.95501899719238,None,247.37506699562073,None,248.40407180786133,248.75820684432983,248.40407180786133,248.75820684432983,247.37506699562073,None,247.37506699562073,None,247.37506699562073,None,-1,-1,1,True,398.62656593322754,661.5135669708252,left,250.333025932312,None,pp_01,icub,clamp,2021_Dec_20_1613,exp,2021.2.3,59.97860717860718,
left,go,0,0,0,0,8,0,48,0,250.8471519947052,None,1,0.4889659881591797,250.8471519947052,None,251.46901893615723,None,252.45150184631348,252.80782198905945,252.45150184631348,252.80782198905945,251.46901893615723,None,251.46901893615723,None,251.46901893615723,None,-1,-1,1,True,359.2679500579834,577.293872833252,left,254.30918788909912,None,pp_01,icub,clamp,2021_Dec_20_1613,exp,2021.2.3,59.97860717860718,
right,go,0,0,0,0,8,1,49,4,254.81475377082825,None,1,0.26869702339172363,254.81475377082825,None,255.17392897605896,None,256.1782729625702,256.5357229709625,256.1782729625702,256.5357229709625,255.17392897605896,None,255.17392897605896,None,255.17392897605896,None,-1,-1,1,True,484.541654586792,797.581672668457,right,258.3486340045929,None,pp_01,icub,clamp,2021_Dec_20_1613,exp,2021.2.3,59.97860717860718,
right,go,0,0,0,0,8,2,50,4,258.8651177883148,None,1,0.3187100887298584,258.8651177883148,None,259.28401494026184,None,260.28016996383667,260.6379659175873,260.28016996383667,260.6379659175873,259.28401494026184,None,259.28401494026184,None,259.28401494026184,None,-1,-1,1,True,504.0159225463867,635.6775760650635,right,262.3002109527588,None,pp_01,icub,clamp,2021_Dec_20_1613,exp,2021.2.3,59.97860717860718,
right,stop,0,0,0,0,8,3,51,5,262.8177309036255,None,1,0.07799482345581055,262.8177309036255,None,262.9891037940979,None,264.01274394989014,264.35891485214233,264.01274394989014,264.35891485214233,262.9891037940979,None,262.9891037940979,None,262.9891037940979,None,450,450,0,True,421.144962310791,573.6303329467773,right,265.87287998199463,None,pp_01,icub,clamp,2021_Dec_20_1613,exp,2021.2.3,59.97860717860718,
right,go,0,0,0,0,8,4,52,4,266.3751428127289,None,1,0.5946040153503418,266.3751428127289,None,267.09779691696167,None,268.0994257926941,268.44340777397156,268.0994257926941,268.44340777397156,267.09779691696167,None,267.09779691696167,None,267.09779691696167,None,-1,-1,1,True,332.0460319519043,599.700927734375,right,269.94092082977295,None,pp_01,icub,clamp,2021_Dec_20_1613,exp,2021.2.3,59.97860717860718,
right,go,0,0,0,0,8,5,53,4,270.4580419063568,None,1,0.12145686149597168,270.4580419063568,None,270.6942517757416,None,271.7039318084717,272.0634398460388,271.7039318084717,272.0634398460388,270.6942517757416,None,270.6942517757416,None,270.6942517757416,None,-1,-1,1,True,285.5267524719238,754.3115615844727,right,273.6318359375,None,pp_01,icub,clamp,2021_Dec_20_1613,exp,2021.2.3,59.97860717860718,
left,go,0,0,0,0,9,0,54,1,274.1602408885956,None,1,0.0850839614868164,274.1602408885956,None,274.3240258693695,None,275.3168489933014,275.6447927951813,275.3168489933014,275.6447927951813,274.3240258693695,None,274.3240258693695,None,274.3240258693695,None,-1,-1,1,True,430.97877502441406,925.9216785430908,left,277.5673828125,None,pp_01,icub,clamp,2021_Dec_20_1613,exp,2021.2.3,59.97860717860718,
left,go,0,0,0,0,9,1,55,0,278.086776971817,None,1,0.0557551383972168,278.086776971817,None,278.25380778312683,None,279.26074481010437,279.604336977005,279.26074481010437,279.604336977005,278.25380778312683,None,278.25380778312683,None,278.25380778312683,None,-1,-1,1,True,376.1005401611328,664.2200946807861,left,281.17540979385376,None,pp_01,icub,clamp,2021_Dec_20_1613,exp,2021.2.3,59.97860717860718,
left,go,0,0,0,0,9,2,56,0,281.67988777160645,None,1,0.1256849765777588,281.67988777160645,None,281.91074895858765,None,282.90246081352234,283.26294684410095,282.90246081352234,283.26294684410095,281.91074895858765,None,281.91074895858765,None,281.91074895858765,None,-1,-1,1,True,436.76209449768066,545.4275608062744,left,284.7769727706909,None,pp_01,icub,clamp,2021_Dec_20_1613,exp,2021.2.3,59.97860717860718,
left,go,0,0,0,0,9,3,57,1,285.29560899734497,None,1,0.2120208740234375,285.29560899734497,None,285.59295082092285,None,286.5975308418274,286.9680018424988,286.5975308418274,286.9680018424988,285.59295082092285,None,285.59295082092285,None,285.59295082092285,None,-1,-1,1,True,350.0547409057617,731.956958770752,left,288.57785296440125,None,pp_01,icub,clamp,2021_Dec_20_1613,exp,2021.2.3,59.97860717860718,
right,go,0,0,0,0,9,4,58,3,289.0831079483032,None,1,0.1317439079284668,289.0831079483032,None,289.321252822876,None,290.3191077709198,290.6845848560333,290.3191077709198,290.6845848560333,289.321252822876,None,289.321252822876,None,289.321252822876,None,-1,-1,1,True,396.639347076416,692.0993328094482,right,292.30333399772644,None,pp_01,icub,clamp,2021_Dec_20_1613,exp,2021.2.3,59.97860717860718,
right,go,0,0,0,0,9,5,59,4,292.8387999534607,None,1,0.05185508728027344,292.8387999534607,None,293.0119528770447,None,294.04350090026855,294.406133890152,294.04350090026855,294.406133890152,293.0119528770447,None,293.0119528770447,None,293.0119528770447,None,-1,-1,1,True,460.4072570800781,742.9285049438477,right,296.09704780578613,None,pp_01,icub,clamp,2021_Dec_20_1613,exp,2021.2.3,59.97860717860718,
left,stop,0,0,0,0,10,0,60,2,296.6180658340454,None,1,0.07051920890808105,296.6180658340454,None,296.78912377357483,None,297.80909991264343,298.1317889690399,297.80909991264343,298.1317889690399,296.78912377357483,None,296.78912377357483,None,296.78912377357483,None,450,400,0,True,367.81978607177734,501.6970634460449,left,299.5362048149109,None,pp_01,icub,clamp,2021_Dec_20_1613,exp,2021.2.3,59.97860717860718,
right,stop,0,0,0,0,10,1,61,5,300.0334689617157,None,1,0.4043240547180176,300.0334689617157,None,300.57042694091797,None,301.5737509727478,301.94567680358887,301.5737509727478,301.94567680358887,300.57042694091797,None,300.57042694091797,None,300.57042694091797,None,400,400,0,True,283.233642578125,496.5090751647949,right,303.25614881515503,None,pp_01,icub,clamp,2021_Dec_20_1613,exp,2021.2.3,59.97860717860718,
left,go,0,0,0,0,10,2,62,1,303.77491092681885,None,1,0.2038102149963379,303.77491092681885,None,304.0689649581909,None,305.08224391937256,305.4389889240265,305.08224391937256,305.4389889240265,304.0689649581909,None,304.0689649581909,None,304.0689649581909,None,-1,-1,1,True,251.70564651489258,743.1409358978271,left,306.9678750038147,None,pp_01,icub,clamp,2021_Dec_20_1613,exp,2021.2.3,59.97860717860718,
left,stop,0,0,0,0,10,3,63,2,307.47103786468506,None,1,0.0653839111328125,307.47103786468506,None,307.64281392097473,None,308.6672718524933,309.0362958908081,308.6672718524933,309.0362958908081,307.64281392097473,None,307.64281392097473,None,307.64281392097473,None,400,350,1,True,447.3304748535156,-1.0,-1,312.9733579158783,None,pp_01,icub,clamp,2021_Dec_20_1613,exp,2021.2.3,59.97860717860718,
right,go,0,0,0,0,10,4,64,4,313.50386786460876,None,1,0.3274240493774414,313.50386786460876,None,313.9305408000946,None,314.9139277935028,315.2779657840729,314.9139277935028,315.2779657840729,313.9305408000946,None,313.9305408000946,None,313.9305408000946,None,-1,-1,1,True,494.5540428161621,570.0161457061768,right,316.87242794036865,None,pp_01,icub,clamp,2021_Dec_20_1613,exp,2021.2.3,59.97860717860718,
left,stop,0,0,0,0,10,5,65,2,317.3713138103485,None,1,0.011101007461547852,317.3713138103485,None,317.47731494903564,None,318.46264576911926,318.81864976882935,318.46264576911926,318.81864976882935,317.47731494903564,None,317.47731494903564,None,317.47731494903564,None,450,350,0,True,324.2621421813965,612.8435134887695,left,320.32233786582947,None,pp_01,icub,clamp,2021_Dec_20_1613,exp,2021.2.3,59.97860717860718,
right,go,0,0,0,0,11,0,66,3,320.83566188812256,None,1,0.6420340538024902,320.83566188812256,None,321.5629599094391,None,322.559042930603,322.90100598335266,322.559042930603,322.90100598335266,321.5629599094391,None,321.5629599094391,None,321.5629599094391,None,-1,-1,1,True,364.5975589752197,666.8369770050049,right,324.50211477279663,None,pp_01,icub,clamp,2021_Dec_20_1613,exp,2021.2.3,59.97860717860718,
left,go,0,0,0,0,11,1,67,0,325.0206289291382,None,1,0.02099895477294922,325.0206289291382,None,325.13217782974243,None,326.15123677253723,326.4972448348999,326.15123677253723,326.4972448348999,325.13217782974243,None,325.13217782974243,None,325.13217782974243,None,-1,-1,1,True,349.80177879333496,683.8197708129883,left,328.05303597450256,None,pp_01,icub,clamp,2021_Dec_20_1613,exp,2021.2.3,59.97860717860718,
left,go,0,0,0,0,11,2,68,0,328.5739150047302,None,1,0.8013191223144531,328.5739150047302,None,329.4838299751282,None,330.4644138813019,330.79095482826233,330.4644138813019,330.79095482826233,329.4838299751282,None,329.4838299751282,None,329.4838299751282,None,-1,-1,1,True,311.2034797668457,776.8030166625977,left,332.45337986946106,None,pp_01,icub,clamp,2021_Dec_20_1613,exp,2021.2.3,59.97860717860718,
left,go,0,0,0,0,11,3,69,1,332.9742519855499,None,1,0.29277610778808594,332.9742519855499,None,333.3901858329773,None,334.40756392478943,334.75848484039307,334.40756392478943,334.75848484039307,333.3901858329773,None,333.3901858329773,None,333.3901858329773,None,-1,-1,1,True,518.4175968170166,698.5998153686523,left,336.4810209274292,None,pp_01,icub,clamp,2021_Dec_20_1613,exp,2021.2.3,59.97860717860718,
left,go,0,0,0,0,11,4,70,0,337.00579595565796,None,1,0.27203917503356934,337.00579595565796,None,337.3580129146576,None,338.38168382644653,338.7286219596863,338.38168382644653,338.7286219596863,337.3580129146576,None,337.3580129146576,None,337.3580129146576,None,-1,-1,1,True,405.64680099487305,851.5608310699463,left,340.51502990722656,None,pp_01,icub,clamp,2021_Dec_20_1613,exp,2021.2.3,59.97860717860718,
left,stop,0,0,0,0,11,5,71,2,341.0309548377991,None,1,0.2591519355773926,341.0309548377991,None,341.39143776893616,None,342.3989508152008,342.7337408065796,342.3989508152008,342.7337408065796,341.39143776893616,None,341.39143776893616,None,341.39143776893616,None,400,350,1,True,433.41517448425293,-1.0,-1,346.732519865036,None,pp_01,icub,clamp,2021_Dec_20_1613,exp,2021.2.3,59.97860717860718,
left,go,0,0,0,0,12,0,72,1,347.2634868621826,None,1,0.3518218994140625,347.2634868621826,None,347.75374388694763,None,348.7375419139862,349.09596991539,348.7375419139862,349.09596991539,347.75374388694763,None,347.75374388694763,None,347.75374388694763,None,-1,-1,1,True,436.4635944366455,699.8703479766846,left,350.7632989883423,None,pp_01,icub,clamp,2021_Dec_20_1613,exp,2021.2.3,59.97860717860718,
left,go,0,0,0,0,12,1,73,1,351.2975127696991,None,1,0.05861997604370117,351.2975127696991,None,351.471843957901,None,352.4770209789276,352.82635593414307,352.4770209789276,352.82635593414307,351.471843957901,None,351.471843957901,None,351.471843957901,None,-1,-1,1,True,429.5041561126709,772.1450328826904,left,354.5585539340973,None,pp_01,icub,clamp,2021_Dec_20_1613,exp,2021.2.3,59.97860717860718,
left,go,0,0,0,0,12,2,74,0,355.0805277824402,None,1,0.12624597549438477,355.0805277824402,None,355.31266498565674,None,356.34627079963684,356.6954758167267,356.34627079963684,356.6954758167267,355.31266498565674,None,355.31266498565674,None,355.31266498565674,None,-1,-1,1,True,559.4713687896729,786.8967056274414,left,358.5680708885193,None,pp_01,icub,clamp,2021_Dec_20_1613,exp,2021.2.3,59.97860717860718,
left,go,0,0,0,0,12,3,75,0,359.1008539199829,None,1,0.06310391426086426,359.1008539199829,None,359.2748529911041,None,360.2800829410553,360.6310398578644,360.2800829410553,360.6310398578644,359.2748529911041,None,359.2748529911041,None,359.2748529911041,None,-1,-1,1,True,344.65551376342773,600.043535232544,left,362.1015088558197,None,pp_01,icub,clamp,2021_Dec_20_1613,exp,2021.2.3,59.97860717860718,
right,stop,0,0,0,0,12,4,76,5,362.6202290058136,None,1,0.07369208335876465,362.6202290058136,None,362.7941589355469,None,363.7926969528198,364.15389680862427,363.7926969528198,364.15389680862427,362.7941589355469,None,362.7941589355469,None,362.7941589355469,None,450,350,1,True,547.7097034454346,-1.0,-1,368.2131698131561,None,pp_01,icub,clamp,2021_Dec_20_1613,exp,2021.2.3,59.97860717860718,
left,go,0,0,0,0,12,5,77,1,368.7442100048065,None,1,0.2921910285949707,368.7442100048065,None,369.1711127758026,None,370.1541278362274,370.5038149356842,370.1541278362274,370.5038149356842,369.1711127758026,None,369.1711127758026,None,369.1711127758026,None,-1,-1,1,True,284.1451168060303,443.6533451080322,left,371.8013119697571,None,pp_01,icub,clamp,2021_Dec_20_1613,exp,2021.2.3,59.97860717860718,
right,stop,1,0,1,0,0,0,0,5,449.11567282676697,None,1,6.167095899581909,449.11567282676697,None,455.3782289028168,None,456.3826677799225,456.7286789417267,456.3826677799225,456.7286789417267,455.3782289028168,None,455.3782289028168,None,455.3782289028168,None,450,400,0,True,279.48451042175293,373.704195022583,right,457.9160888195038,None,pp_01,icub,clamp,2021_Dec_20_1613,exp,2021.2.3,59.97860717860718,
left,go,1,0,1,0,0,1,1,1,458.4122807979584,None,1,0.45996809005737305,458.4122807979584,None,458.956346988678,None,459.9680759906769,460.3064818382263,459.9680759906769,460.3064818382263,458.956346988678,None,458.956346988678,None,458.956346988678,None,-1,-1,1,True,138.2150650024414,344.5088863372803,left,461.3435378074646,None,pp_01,icub,clamp,2021_Dec_20_1613,exp,2021.2.3,59.97860717860718,
right,go,1,0,1,0,0,2,2,4,461.85435700416565,None,1,0.0598759651184082,461.85435700416565,None,462.02537083625793,None,463.03883385658264,463.3655607700348,463.03883385658264,463.3655607700348,462.02537083625793,None,462.02537083625793,None,462.02537083625793,None,-1,-1,1,True,306.0934543609619,266.8728828430176,right,464.5096879005432,None,pp_01,icub,clamp,2021_Dec_20_1613,exp,2021.2.3,59.97860717860718,
left,go,1,0,1,0,0,3,3,1,465.0295059680939,None,1,0.07156705856323242,465.0295059680939,None,465.2017059326172,None,466.1916558742523,466.54440999031067,466.1916558742523,466.54440999031067,465.2017059326172,None,465.2017059326172,None,465.2017059326172,None,,,0,False,-1.0,-1.0,-1,467.0695569515228,None,pp_01,icub,clamp,2021_Dec_20_1613,exp,2021.2.3,59.97860717860718,
right,go,1,0,1,0,0,4,4,4,467.5860929489136,None,1,0.5729210376739502,467.5860929489136,None,468.2495708465576,None,469.2426218986511,469.5908658504486,469.2426218986511,469.5908658504486,468.2495708465576,None,468.2495708465576,None,468.2495708465576,None,-1,-1,1,True,319.4434642791748,448.00543785095215,right,470.89797282218933,None,pp_01,icub,clamp,2021_Dec_20_1613,exp,2021.2.3,59.97860717860718,
right,stop,1,0,1,0,0,5,5,5,471.4030079841614,None,1,0.18422985076904297,471.4030079841614,None,471.69792079925537,None,472.7024428844452,473.0599157810211,472.7024428844452,473.0599157810211,471.69792079925537,None,471.69792079925537,None,471.69792079925537,None,450,350,0,True,275.0980854034424,391.95919036865234,right,474.25504899024963,None,pp_01,icub,clamp,2021_Dec_20_1613,exp,2021.2.3,59.97860717860718,
left,go,1,0,1,0,1,0,6,1,474.7679238319397,None,1,0.4536759853363037,474.7679238319397,None,475.31201577186584,None,476.3385708332062,476.6876847743988,476.3385708332062,476.6876847743988,475.31201577186584,None,475.31201577186584,None,475.31201577186584,None,-1,-1,1,True,238.60931396484375,378.73339653015137,left,477.83411478996277,None,pp_01,icub,clamp,2021_Dec_20_1613,exp,2021.2.3,59.97860717860718,
left,go,1,0,1,0,1,1,7,1,478.335088968277,None,1,0.02131199836730957,478.335088968277,None,478.4417510032654,None,479.42963099479675,479.78078293800354,479.42963099479675,479.78078293800354,478.4417510032654,None,478.4417510032654,None,478.4417510032654,None,-1,-1,1,True,256.1368942260742,443.4325695037842,left,481.0407118797302,None,pp_01,icub,clamp,2021_Dec_20_1613,exp,2021.2.3,59.97860717860718,
right,stop,1,0,1,0,1,2,8,5,481.5618097782135,None,1,0.1195220947265625,481.5618097782135,None,481.79478096961975,None,482.8230698108673,483.1800858974457,482.8230698108673,483.1800858974457,481.79478096961975,None,481.79478096961975,None,481.79478096961975,None,450,300,0,True,247.3301887512207,476.0153293609619,right,484.398188829422,None,pp_01,icub,clamp,2021_Dec_20_1613,exp,2021.2.3,59.97860717860718,
left,stop,1,0,1,0,1,3,9,2,484.9110219478607,None,1,0.3424968719482422,484.9110219478607,None,485.32922196388245,None,486.35775685310364,486.7062599658966,486.35775685310364,486.7062599658966,485.32922196388245,None,485.32922196388245,None,485.32922196388245,None,450,250,0,True,191.67852401733398,358.71362686157227,left,487.7680947780609,None,pp_01,icub,clamp,2021_Dec_20_1613,exp,2021.2.3,59.97860717860718,
left,go,1,0,1,0,1,4,10,0,488.28670382499695,None,1,0.1845109462738037,488.28670382499695,None,488.56924200057983,None,489.5885808467865,489.94055795669556,489.5885808467865,489.94055795669556,488.56924200057983,None,488.56924200057983,None,488.56924200057983,None,-1,-1,1,True,250.09846687316895,542.9930686950684,left,491.27112889289856,None,pp_01,icub,clamp,2021_Dec_20_1613,exp,2021.2.3,59.97860717860718,
left,go,1,0,1,0,1,5,11,0,491.7772648334503,None,1,0.1602189540863037,491.7772648334503,None,492.07007694244385,None,493.0945029258728,493.4546859264374,493.0945029258728,493.4546859264374,492.07007694244385,None,492.07007694244385,None,492.07007694244385,None,-1,-1,1,True,262.81094551086426,525.1524448394775,left,494.73417687416077,None,pp_01,icub,clamp,2021_Dec_20_1613,exp,2021.2.3,59.97860717860718,
left,stop,1,0,1,0,2,0,12,2,495.26583886146545,None,1,0.08619093894958496,495.26583886146545,None,495.43773078918457,None,496.46664094924927,496.8123769760132,496.46664094924927,496.8123769760132,495.43773078918457,None,495.43773078918457,None,495.43773078918457,None,400,250,0,True,295.32384872436523,371.8290328979492,left,498.0102939605713,None,pp_01,icub,clamp,2021_Dec_20_1613,exp,2021.2.3,59.97860717860718,
right,go,1,0,1,0,2,1,13,4,498.5424039363861,None,1,0.0460209846496582,498.5424039363861,None,498.71266198158264,None,499.7284948825836,500.0874648094177,499.7284948825836,500.0874648094177,498.71266198158264,None,498.71266198158264,None,498.71266198158264,None,-1,-1,1,True,262.87150382995605,373.9359378814697,right,501.2556939125061,None,pp_01,icub,clamp,2021_Dec_20_1613,exp,2021.2.3,59.97860717860718,
left,stop,1,0,1,0,2,2,14,2,501.75515699386597,None,1,0.0893850326538086,501.75515699386597,None,501.92967891693115,None,502.9441077709198,503.2708389759064,502.9441077709198,503.2708389759064,501.92967891693115,None,501.92967891693115,None,501.92967891693115,None,,,0,False,-1.0,-1.0,-1,503.72942996025085,None,pp_01,icub,clamp,2021_Dec_20_1613,exp,2021.2.3,59.97860717860718,
right,go,1,0,1,0,2,3,15,4,504.2450897693634,None,1,0.5276899337768555,504.2450897693634,None,504.84835386276245,None,505.84892892837524,506.1763038635254,505.84892892837524,506.1763038635254,504.84835386276245,None,504.84835386276245,None,504.84835386276245,None,-1,-1,1,True,329.42652702331543,440.2496814727783,right,507.5232779979706,None,pp_01,icub,clamp,2021_Dec_20_1613,exp,2021.2.3,59.97860717860718,
right,go,1,0,1,0,2,4,16,4,508.046749830246,None,1,0.11170601844787598,508.046749830246,None,508.27941489219666,None,509.30540680885315,509.6650347709656,509.30540680885315,509.6650347709656,508.27941489219666,None,508.27941489219666,None,508.27941489219666,None,-1,-1,1,True,320.60933113098145,530.4489135742188,right,511.02705097198486,None,pp_01,icub,clamp,2021_Dec_20_1613,exp,2021.2.3,59.97860717860718,
right,go,1,0,1,0,2,5,17,3,511.5522859096527,None,1,0.05333590507507324,511.5522859096527,None,511.7191867828369,None,512.7266829013824,513.089478969574,512.7266829013824,513.089478969574,511.7191867828369,None,511.7191867828369,None,511.7191867828369,None,-1,-1,1,True,318.7406063079834,431.0722351074219,right,514.3551738262177,None,pp_01,icub,clamp,2021_Dec_20_1613,exp,2021.2.3,59.97860717860718,
right,go,1,0,1,0,3,0,18,3,514.870974779129,None,1,0.17165708541870117,514.870974779129,None,515.165424823761,None,516.179114818573,516.537125825882,516.179114818573,516.537125825882,515.165424823761,None,515.165424823761,None,515.165424823761,None,-1,-1,1,True,314.9864673614502,343.38974952697754,right,517.701730966568,None,pp_01,icub,clamp,2021_Dec_20_1613,exp,2021.2.3,59.97860717860718,
left,go,1,0,1,0,3,1,19,0,518.2244558334351,None,1,0.15365290641784668,518.2244558334351,None,518.4585099220276,None,519.4704818725586,519.8242998123169,519.4704818725586,519.8242998123169,518.4585099220276,None,518.4585099220276,None,518.4585099220276,None,-1,-1,1,True,336.0557556152344,511.6610527038574,left,521.2049629688263,None,pp_01,icub,clamp,2021_Dec_20_1613,exp,2021.2.3,59.97860717860718,
left,stop,1,0,1,0,3,2,20,2,521.7135488986969,None,1,0.07371711730957031,521.7135488986969,None,521.8811337947845,None,522.9083969593048,523.2729549407959,522.9083969593048,523.2729549407959,521.8811337947845,None,521.8811337947845,None,521.8811337947845,None,350,250,0,True,234.511137008667,372.2994327545166,left,524.3750867843628,None,pp_01,icub,clamp,2021_Dec_20_1613,exp,2021.2.3,59.97860717860718,
right,go,1,0,1,0,3,3,21,3,524.8890559673309,None,1,0.5613288879394531,524.8890559673309,None,525.5422217845917,None,526.5587859153748,526.9192688465118,526.5587859153748,526.9192688465118,525.5422217845917,None,525.5422217845917,None,525.5422217845917,None,-1,-1,1,True,334.9888324737549,387.7744674682617,right,528.1705780029297,None,pp_01,icub,clamp,2021_Dec_20_1613,exp,2021.2.3,59.97860717860718,
right,go,1,0,1,0,3,4,22,4,528.6907320022583,None,1,0.3689141273498535,528.6907320022583,None,529.1710019111633,None,530.1759068965912,530.5236668586731,530.1759068965912,530.5236668586731,529.1710019111633,None,529.1710019111633,None,529.1710019111633,None,-1,-1,1,True,339.70165252685547,455.6159973144531,right,531.8723919391632,None,pp_01,icub,clamp,2021_Dec_20_1613,exp,2021.2.3,59.97860717860718,
left,stop,1,0,1,0,3,5,23,2,532.3831758499146,None,1,0.16966485977172852,532.3831758499146,None,532.6751627922058,None,533.6847667694092,534.0376379489899,533.6847667694092,534.0376379489899,532.6751627922058,None,532.6751627922058,None,532.6751627922058,None,300,250,0,True,404.3102264404297,385.50734519958496,left,535.3631088733673,None,pp_01,icub,clamp,2021_Dec_20_1613,exp,2021.2.3,59.97860717860718,
left,go,1,0,1,0,4,0,24,0,535.8734889030457,None,1,0.7764909267425537,535.8734889030457,None,536.7838439941406,None,537.8039197921753,538.1636669635773,537.8039197921753,538.1636669635773,536.7838439941406,None,536.7838439941406,None,536.7838439941406,None,-1,-1,1,True,282.99403190612793,492.65050888061523,left,539.4735579490662,None,pp_01,icub,clamp,2021_Dec_20_1613,exp,2021.2.3,59.97860717860718,
right,go,1,0,1,0,4,1,25,3,539.981440782547,None,1,0.23930692672729492,539.981440782547,None,540.3358819484711,None,541.3425447940826,541.7037827968597,541.3425447940826,541.7037827968597,540.3358819484711,None,540.3358819484711,None,540.3358819484711,None,-1,-1,1,True,254.37116622924805,408.77628326416016,right,542.8843469619751,None,pp_01,icub,clamp,2021_Dec_20_1613,exp,2021.2.3,59.97860717860718,
left,go,1,0,1,0,4,2,26,1,543.4054188728333,None,1,0.2314140796661377,543.4054188728333,None,543.760015964508,None,544.7684268951416,545.1270649433136,544.7684268951416,545.1270649433136,543.760015964508,None,543.760015964508,None,543.760015964508,None,-1,-1,1,True,355.4859161376953,460.25729179382324,left,546.4756858348846,None,pp_01,icub,clamp,2021_Dec_20_1613,exp,2021.2.3,59.97860717860718,
left,stop,1,0,1,0,4,3,27,2,546.9884397983551,None,1,0.1185598373413086,546.9884397983551,None,547.2210128307343,None,548.2239367961884,548.5701718330383,548.2239367961884,548.5701718330383,547.2210128307343,None,547.2210128307343,None,547.2210128307343,None,250,250,0,True,307.6951503753662,369.22216415405273,left,549.7859637737274,None,pp_01,icub,clamp,2021_Dec_20_1613,exp,2021.2.3,59.97860717860718,
right,go,1,0,1,0,4,4,28,4,550.2925028800964,None,1,0.27179884910583496,550.2925028800964,None,550.6495988368988,None,551.6454319953918,551.9958047866821,551.6454319953918,551.9958047866821,550.6495988368988,None,550.6495988368988,None,550.6495988368988,None,-1,-1,1,True,383.2745552062988,454.47540283203125,right,553.3995039463043,None,pp_01,icub,clamp,2021_Dec_20_1613,exp,2021.2.3,59.97860717860718,
left,go,1,0,1,0,4,5,29,1,553.9187729358673,None,1,0.1202847957611084,553.9187729358673,None,554.1502227783203,None,555.1627187728882,555.5119187831879,555.1627187728882,555.5119187831879,554.1502227783203,None,554.1502227783203,None,554.1502227783203,None,-1,-1,1,True,385.17022132873535,343.02639961242676,left,556.7696387767792,None,pp_01,icub,clamp,2021_Dec_20_1613,exp,2021.2.3,59.97860717860718,
right,go,1,0,1,0,5,0,30,3,557.288566827774,None,1,0.02942800521850586,557.288566827774,None,557.3962759971619,None,558.3900408744812,558.7383658885956,558.3900408744812,558.7383658885956,557.3962759971619,None,557.3962759971619,None,557.3962759971619,None,-1,-1,1,True,340.5580520629883,300.60720443725586,right,559.9112548828125,None,pp_01,icub,clamp,2021_Dec_20_1613,exp,2021.2.3,59.97860717860718,
right,go,1,0,1,0,5,1,31,3,560.4188549518585,None,1,0.06923198699951172,560.4188549518585,None,560.5886609554291,None,561.6034049987793,561.9462819099426,561.6034049987793,561.9462819099426,560.5886609554291,None,560.5886609554291,None,560.5886609554291,None,-1,-1,1,True,328.22704315185547,378.56173515319824,right,563.1817028522491,None,pp_01,icub,clamp,2021_Dec_20_1613,exp,2021.2.3,59.97860717860718,
right,stop,1,0,1,0,5,2,32,5,563.6903898715973,None,1,1.2622098922729492,563.6903898715973,None,565.0407519340515,None,566.0140528678894,566.3748178482056,566.0140528678894,566.3748178482056,565.0407519340515,None,565.0407519340515,None,565.0407519340515,None,200,250,0,True,366.7159080505371,349.63083267211914,right,567.6291048526764,None,pp_01,icub,clamp,2021_Dec_20_1613,exp,2021.2.3,59.97860717860718,
left,go,1,0,1,0,5,3,33,1,568.136148929596,None,1,0.5356848239898682,568.136148929596,None,568.8003439903259,None,569.814181804657,570.1783509254456,569.814181804657,570.1783509254456,568.8003439903259,None,568.8003439903259,None,568.8003439903259,None,-1,-1,1,True,407.70411491394043,469.4483280181885,left,571.5757308006287,None,pp_01,icub,clamp,2021_Dec_20_1613,exp,2021.2.3,59.97860717860718,
left,go,1,0,1,0,5,4,34,0,572.1004250049591,None,1,0.08856010437011719,572.1004250049591,None,572.2746469974518,None,573.2957198619843,573.6501648426056,573.2957198619843,573.6501648426056,572.2746469974518,None,572.2746469974518,None,572.2746469974518,None,-1,-1,1,True,390.52438735961914,372.2512722015381,left,574.9047348499298,None,pp_01,icub,clamp,2021_Dec_20_1613,exp,2021.2.3,59.97860717860718,
left,go,1,0,1,0,5,5,35,1,575.4248569011688,None,1,0.6148810386657715,575.4248569011688,None,576.1314949989319,None,577.1103889942169,577.473356962204,577.1103889942169,577.473356962204,576.1314949989319,None,576.1314949989319,None,576.1314949989319,None,-1,-1,1,True,408.68377685546875,408.2808494567871,left,578.8158919811249,None,pp_01,icub,clamp,2021_Dec_20_1613,exp,2021.2.3,59.97860717860718,
left,stop,1,0,1,0,6,0,36,2,579.3236818313599,None,1,0.26068592071533203,579.3236818313599,None,579.6792838573456,None,580.6887059211731,581.0403869152069,580.6887059211731,581.0403869152069,579.6792838573456,None,579.6792838573456,None,579.6792838573456,None,200,200,1,True,338.5753631591797,-1.0,-1,584.9238359928131,None,pp_01,icub,clamp,2021_Dec_20_1613,exp,2021.2.3,59.97860717860718,
left,stop,1,0,1,0,6,1,37,2,585.4544839859009,None,1,0.3363809585571289,585.4544839859009,None,585.8824148178101,None,586.8913488388062,587.2499959468842,586.8913488388062,587.2499959468842,585.8824148178101,None,585.8824148178101,None,585.8824148178101,None,250,200,1,True,318.9656734466553,-1.0,-1,591.0813448429108,None,pp_01,icub,clamp,2021_Dec_20_1613,exp,2021.2.3,59.97860717860718,
left,stop,1,0,1,0,6,2,38,2,591.6117169857025,None,1,0.33716702461242676,591.6117169857025,None,592.0371549129486,None,593.020555973053,593.3786427974701,593.020555973053,593.3786427974701,592.0371549129486,None,592.0371549129486,None,592.0371549129486,None,300,200,1,True,432.6612949371338,-1.0,-1,597.3378698825836,None,pp_01,icub,clamp,2021_Dec_20_1613,exp,2021.2.3,59.97860717860718,
left,go,1,0,1,0,6,3,39,0,597.8692109584808,None,1,0.39421510696411133,597.8692109584808,None,598.3578908443451,None,599.3367738723755,599.6805629730225,599.3367738723755,599.6805629730225,598.3578908443451,None,598.3578908443451,None,598.3578908443451,None,-1,-1,1,True,358.7024211883545,619.5905208587646,left,601.2057898044586,None,pp_01,icub,clamp,2021_Dec_20_1613,exp,2021.2.3,59.97860717860718,
left,go,1,0,1,0,6,4,40,0,601.7393379211426,None,1,1.191633939743042,601.7393379211426,None,603.013659954071,None,603.989453792572,604.3504538536072,603.989453792572,604.3504538536072,603.013659954071,None,603.013659954071,None,603.013659954071,None,-1,-1,1,True,398.2992172241211,569.2439079284668,left,605.8522539138794,None,pp_01,icub,clamp,2021_Dec_20_1613,exp,2021.2.3,59.97860717860718,
right,go,1,0,1,0,6,5,41,3,606.3657259941101,None,1,0.0165560245513916,606.3657259941101,None,606.4747598171234,None,607.4974279403687,607.8461649417877,607.4974279403687,607.8461649417877,606.4747598171234,None,606.4747598171234,None,606.4747598171234,None,-1,-1,1,True,460.8497619628906,483.11352729797363,right,609.2910969257355,None,pp_01,icub,clamp,2021_Dec_20_1613,exp,2021.2.3,59.97860717860718,
right,stop,1,0,1,0,7,0,42,5,609.8025119304657,None,1,0.9355149269104004,609.8025119304657,None,610.8574569225311,None,611.8269407749176,612.1950268745422,611.8269407749176,612.1950268745422,610.8574569225311,None,610.8574569225311,None,610.8574569225311,None,350,200,1,True,336.1494541168213,-1.0,-1,616.0642259120941,None,pp_01,icub,clamp,2021_Dec_20_1613,exp,2021.2.3,59.97860717860718,
right,go,1,0,1,0,7,1,43,3,616.5704488754272,None,1,0.3838019371032715,616.5704488754272,None,617.0541059970856,None,618.0367197990417,618.3608958721161,618.0367197990417,618.3608958721161,617.0541059970856,None,617.0541059970856,None,617.0541059970856,None,-1,-1,1,True,393.9993381500244,367.8715229034424,right,619.6850779056549,None,pp_01,icub,clamp,2021_Dec_20_1613,exp,2021.2.3,59.97860717860718,
left,go,1,0,1,0,7,2,44,0,620.1923298835754,None,1,0.1280210018157959,620.1923298835754,None,620.4263939857483,None,621.4611690044403,621.8204929828644,621.4611690044403,621.8204929828644,620.4263939857483,None,620.4263939857483,None,620.4263939857483,None,-1,-1,1,True,363.65652084350586,408.2460403442383,left,623.1068429946899,None,pp_01,icub,clamp,2021_Dec_20_1613,exp,2021.2.3,59.97860717860718,
right,go,1,0,1,0,7,3,45,4,623.6229717731476,None,1,0.06941390037536621,623.6229717731476,None,623.7926008701324,None,624.8170969486237,625.1582977771759,624.8170969486237,625.1582977771759,623.7926008701324,None,623.7926008701324,None,623.7926008701324,None,-1,-1,1,True,396.5764045715332,493.21889877319336,right,626.5690639019012,None,pp_01,icub,clamp,2021_Dec_20_1613,exp,2021.2.3,59.97860717860718,
right,stop,1,0,1,0,7,4,46,5,627.078145980835,None,1,0.05539584159851074,627.078145980835,None,627.2488529682159,None,628.2438957691193,628.5964889526367,628.2438957691193,628.5964889526367,627.2488529682159,None,627.2488529682159,None,627.2488529682159,None,350,250,1,True,349.2262363433838,-1.0,-1,632.4740657806396,None,pp_01,icub,clamp,2021_Dec_20_1613,exp,2021.2.3,59.97860717860718,
right,stop,1,0,1,0,7,5,47,5,633.0046629905701,None,1,0.3955960273742676,633.0046629905701,None,633.4927048683167,None,634.4772679805756,634.809693813324,634.4772679805756,634.809693813324,633.4927048683167,None,633.4927048683167,None,633.4927048683167,None,350,300,0,True,293.11656951904297,373.7783432006836,right,636.0582368373871,None,pp_01,icub,clamp,2021_Dec_20_1613,exp,2021.2.3,59.97860717860718,
right,go,1,0,1,0,8,0,48,3,636.5786399841309,None,1,1.0062530040740967,636.5786399841309,None,637.6757299900055,None,638.6691699028015,639.0176417827606,638.6691699028015,639.0176417827606,637.6757299900055,None,637.6757299900055,None,637.6757299900055,None,-1,-1,1,True,340.68822860717773,541.5544509887695,right,640.4710409641266,None,pp_01,icub,clamp,2021_Dec_20_1613,exp,2021.2.3,59.97860717860718,
right,go,1,0,1,0,8,1,49,4,640.9677519798279,None,1,0.3928041458129883,640.9677519798279,None,641.4513268470764,None,642.444739818573,642.8011169433594,642.444739818573,642.8011169433594,641.4513268470764,None,641.4513268470764,None,641.4513268470764,None,-1,-1,1,True,525.3903865814209,511.127233505249,right,644.361154794693,None,pp_01,icub,clamp,2021_Dec_20_1613,exp,2021.2.3,59.97860717860718,
left,stop,1,0,1,0,8,2,50,2,644.875216960907,None,1,0.32145118713378906,644.875216960907,None,645.2965149879456,None,646.3254568576813,646.6779479980469,646.3254568576813,646.6779479980469,645.2965149879456,None,645.2965149879456,None,645.2965149879456,None,350,250,0,True,355.6344509124756,508.7165832519531,left,648.0387299060822,None,pp_01,icub,clamp,2021_Dec_20_1613,exp,2021.2.3,59.97860717860718,
right,go,1,0,1,0,8,3,51,4,648.5599818229675,None,1,0.7498888969421387,648.5599818229675,None,649.4099478721619,None,650.4260249137878,650.7735939025879,650.4260249137878,650.7735939025879,649.4099478721619,None,649.4099478721619,None,649.4099478721619,None,-1,-1,1,True,461.8973731994629,529.496431350708,right,652.2814779281616,None,pp_01,icub,clamp,2021_Dec_20_1613,exp,2021.2.3,59.97860717860718,
right,go,1,0,1,0,8,4,52,4,652.8032579421997,None,1,0.0367281436920166,652.8032579421997,None,652.9156758785248,None,653.9132149219513,654.2797498703003,653.9132149219513,654.2797498703003,652.9156758785248,None,652.9156758785248,None,652.9156758785248,None,,,0,False,-1.0,-1.0,-1,654.7120659351349,None,pp_01,icub,clamp,2021_Dec_20_1613,exp,2021.2.3,59.97860717860718,
right,stop,1,0,1,0,8,5,53,5,655.2266759872437,None,1,0.5220751762390137,655.2266759872437,None,655.8718528747559,None,656.8897559642792,657.2468090057373,656.8897559642792,657.2468090057373,655.8718528747559,None,655.8718528747559,None,655.8718528747559,None,300,250,1,True,314.3947124481201,-1.0,-1,661.1012358665466,None,pp_01,icub,clamp,2021_Dec_20_1613,exp,2021.2.3,59.97860717860718,
right,stop,1,0,1,0,9,0,54,5,661.5942449569702,None,1,0.43819499015808105,661.5942449569702,None,662.1451909542084,None,663.1290228366852,663.4937977790833,663.1290228366852,663.4937977790833,662.1451909542084,None,662.1451909542084,None,662.1451909542084,None,300,300,0,True,414.4778251647949,452.0885944366455,right,664.895623922348,None,pp_01,icub,clamp,2021_Dec_20_1613,exp,2021.2.3,59.97860717860718,
left,go,1,0,1,0,9,1,55,0,665.4082849025726,None,1,0.4765610694885254,665.4082849025726,None,666.0094809532166,None,667.0191547870636,667.3736538887024,667.0191547870636,667.3736538887024,666.0094809532166,None,666.0094809532166,None,666.0094809532166,None,-1,-1,1,True,573.8570690155029,436.91205978393555,left,668.9172029495239,None,pp_01,icub,clamp,2021_Dec_20_1613,exp,2021.2.3,59.97860717860718,
left,stop,1,0,1,0,9,2,56,2,669.4307868480682,None,1,0.1582319736480713,669.4307868480682,None,669.7213537693024,None,670.7344517707825,671.1049997806549,670.7344517707825,671.1049997806549,669.7213537693024,None,669.7213537693024,None,669.7213537693024,None,300,250,1,True,375.81562995910645,-1.0,-1,674.9695158004761,None,pp_01,icub,clamp,2021_Dec_20_1613,exp,2021.2.3,59.97860717860718,
left,go,1,0,1,0,9,3,57,1,675.5042607784271,None,1,0.26958703994750977,675.5042607784271,None,675.8697528839111,None,676.8700079917908,677.227954864502,676.8700079917908,677.227954864502,675.8697528839111,None,675.8697528839111,None,675.8697528839111,None,-1,-1,1,True,414.01219367980957,515.8352851867676,left,678.6887638568878,None,pp_01,icub,clamp,2021_Dec_20_1613,exp,2021.2.3,59.97860717860718,
left,go,1,0,1,0,9,4,58,1,679.209184885025,None,1,0.253065824508667,679.209184885025,None,679.5651819705963,None,680.571534872055,680.9126918315887,680.571534872055,680.9126918315887,679.5651819705963,None,679.5651819705963,None,679.5651819705963,None,-1,-1,1,True,481.9762706756592,514.6310329437256,left,682.4423007965088,None,pp_01,icub,clamp,2021_Dec_20_1613,exp,2021.2.3,59.97860717860718,
right,stop,1,0,1,0,9,5,59,5,682.9438319206238,None,1,0.2718191146850586,682.9438319206238,None,683.3010218143463,None,684.3067798614502,684.6452438831329,684.3067798614502,684.6452438831329,683.3010218143463,None,683.3010218143463,None,683.3010218143463,None,350,250,1,True,392.66109466552734,-1.0,-1,688.5719938278198,None,pp_01,icub,clamp,2021_Dec_20_1613,exp,2021.2.3,59.97860717860718,
right,go,1,0,1,0,10,0,60,3,689.1029138565063,None,1,0.46586084365844727,689.1029138565063,None,689.6555547714233,None,690.6413629055023,690.9850399494171,690.6413629055023,690.9850399494171,689.6555547714233,None,689.6555547714233,None,689.6555547714233,None,-1,-1,1,True,347.2294807434082,302.4735450744629,right,692.2071249485016,None,pp_01,icub,clamp,2021_Dec_20_1613,exp,2021.2.3,59.97860717860718,
left,go,1,0,1,0,10,1,61,1,692.7099618911743,None,1,0.6327991485595703,692.7099618911743,None,693.4738237857819,None,694.4631819725037,694.7898678779602,694.4631819725037,694.7898678779602,693.4738237857819,None,693.4738237857819,None,693.4738237857819,None,-1,-1,1,True,327.21447944641113,335.0796699523926,left,696.0247237682343,None,pp_01,icub,clamp,2021_Dec_20_1613,exp,2021.2.3,59.97860717860718,
right,go,1,0,1,0,10,2,62,4,696.5429918766022,None,1,0.4369940757751465,696.5429918766022,None,697.0757009983063,None,698.052964925766,698.4234499931335,698.052964925766,698.4234499931335,697.0757009983063,None,697.0757009983063,None,697.0757009983063,None,-1,-1,1,True,419.5215702056885,349.2305278778076,right,699.7204999923706,None,pp_01,icub,clamp,2021_Dec_20_1613,exp,2021.2.3,59.97860717860718,
left,go,1,0,1,0,10,3,63,0,700.2455899715424,None,1,0.24427008628845215,700.2455899715424,None,700.6008899211884,None,701.632465839386,701.99462890625,701.632465839386,701.99462890625,700.6008899211884,None,700.6008899211884,None,700.6008899211884,None,-1,-1,1,True,522.1335887908936,331.3000202178955,left,703.3354618549347,None,pp_01,icub,clamp,2021_Dec_20_1613,exp,2021.2.3,59.97860717860718,
left,go,1,0,1,0,10,4,64,1,703.8559939861298,None,1,0.05632209777832031,703.8559939861298,None,704.0269839763641,None,None,None,None,None,704.0269839763641,None,704.0269839763641,None,704.0269839763641,None,,,0,False,-1.0,-1.0,-1,704.3238999843597,None,pp_01,icub,clamp,2021_Dec_20_1613,exp,2021.2.3,59.97860717860718,
left,go,1,0,1,0,10,5,65,0,704.852297782898,None,1,0.26559901237487793,704.852297782898,None,705.2195949554443,None,706.20503282547,706.5556058883667,706.20503282547,706.5556058883667,705.2195949554443,None,705.2195949554443,None,705.2195949554443,None,-1,-1,1,True,419.79312896728516,437.5424385070801,left,707.980230808258,None,pp_01,icub,clamp,2021_Dec_20_1613,exp,2021.2.3,59.97860717860718,
left,go,1,0,1,0,11,0,66,0,708.483699798584,None,1,0.262814998626709,708.483699798584,None,708.8422348499298,None,709.8327958583832,710.1779808998108,709.8327958583832,710.1779808998108,708.8422348499298,None,708.8422348499298,None,708.8422348499298,None,-1,-1,1,True,443.78137588500977,384.78779792785645,left,711.541613817215,None,pp_01,icub,clamp,2021_Dec_20_1613,exp,2021.2.3,59.97860717860718,
right,stop,1,0,1,0,11,1,67,5,712.0564367771149,None,1,0.3240389823913574,712.0564367771149,None,712.475921869278,None,713.4665179252625,713.825217962265,713.4665179252625,713.825217962265,712.475921869278,None,712.475921869278,None,712.475921869278,None,350,300,0,True,334.72204208374023,382.09056854248047,right,715.1018788814545,None,pp_01,icub,clamp,2021_Dec_20_1613,exp,2021.2.3,59.97860717860718,
right,go,1,0,1,0,11,2,68,3,715.6138319969177,None,1,0.48180699348449707,715.6138319969177,None,716.2141599655151,None,None,None,None,None,716.2141599655151,None,716.2141599655151,None,716.2141599655151,None,,,0,False,-1.0,-1.0,-1,716.589802980423,None,pp_01,icub,clamp,2021_Dec_20_1613,exp,2021.2.3,59.97860717860718,
right,go,1,0,1,0,11,3,69,4,717.1288177967072,None,1,0.0825951099395752,717.1288177967072,None,717.3085129261017,None,718.29456782341,718.6483469009399,718.29456782341,718.6483469009399,717.3085129261017,None,717.3085129261017,None,717.3085129261017,None,-1,-1,1,True,496.3400363922119,351.0897159576416,right,720.0220987796783,None,pp_01,icub,clamp,2021_Dec_20_1613,exp,2021.2.3,59.97860717860718,
right,stop,1,0,1,0,11,4,70,5,720.5392129421234,None,1,0.43515586853027344,720.5392129421234,None,721.0854189395905,None,722.1119728088379,722.454696893692,722.1119728088379,722.454696893692,721.0854189395905,None,721.0854189395905,None,721.0854189395905,None,350,250,0,True,429.12936210632324,336.3525867462158,right,723.7467658519745,None,pp_01,icub,clamp,2021_Dec_20_1613,exp,2021.2.3,59.97860717860718,
right,go,1,0,1,0,11,5,71,3,724.263151884079,None,1,0.5095160007476807,724.263151884079,None,724.8579859733582,None,725.8701839447021,726.2082588672638,725.8701839447021,726.2082588672638,724.8579859733582,None,724.8579859733582,None,724.8579859733582,None,-1,-1,1,True,332.9439163208008,370.5904483795166,right,727.4431068897247,None,pp_01,icub,clamp,2021_Dec_20_1613,exp,2021.2.3,59.97860717860718,
left,go,1,0,1,0,12,0,72,0,727.9414129257202,None,1,0.3041560649871826,727.9414129257202,None,728.3606288433075,None,729.3588688373566,729.7141289710999,729.3588688373566,729.7141289710999,728.3606288433075,None,728.3606288433075,None,728.3606288433075,None,-1,-1,1,True,526.9219875335693,359.0404987335205,left,731.151184797287,None,pp_01,icub,clamp,2021_Dec_20_1613,exp,2021.2.3,59.97860717860718,
right,go,1,0,1,0,12,1,73,3,731.6641898155212,None,1,0.29144906997680664,731.6641898155212,None,732.0796627998352,None,733.0877339839935,733.4489479064941,733.0877339839935,733.4489479064941,732.0796627998352,None,732.0796627998352,None,732.0796627998352,None,-1,-1,1,True,265.95234870910645,367.3429489135742,right,734.6130969524384,None,pp_01,icub,clamp,2021_Dec_20_1613,exp,2021.2.3,59.97860717860718,
left,stop,1,0,1,0,12,2,74,2,735.1264009475708,None,1,0.07932782173156738,735.1264009475708,None,735.2965657711029,None,736.3008468151093,736.6534218788147,736.3008468151093,736.6534218788147,735.2965657711029,None,735.2965657711029,None,735.2965657711029,None,350,200,0,True,362.5516891479492,324.415922164917,left,737.8712649345398,None,pp_01,icub,clamp,2021_Dec_20_1613,exp,2021.2.3,59.97860717860718,
right,stop,1,0,1,0,12,3,75,5,738.3698477745056,None,1,0.3549509048461914,738.3698477745056,None,738.8434438705444,None,739.8555459976196,740.2149667739868,739.8555459976196,740.2149667739868,738.8434438705444,None,738.8434438705444,None,738.8434438705444,None,300,200,0,True,225.93283653259277,332.72504806518555,right,741.3052189350128,None,pp_01,icub,clamp,2021_Dec_20_1613,exp,2021.2.3,59.97860717860718,
left,go,1,0,1,0,12,4,76,1,741.8244769573212,None,1,0.1434011459350586,741.8244769573212,None,742.0553028583527,None,743.0647218227386,743.4279618263245,743.0647218227386,743.4279618263245,742.0553028583527,None,742.0553028583527,None,742.0553028583527,None,-1,-1,1,True,316.59650802612305,535.0246429443359,left,744.8085968494415,None,pp_01,icub,clamp,2021_Dec_20_1613,exp,2021.2.3,59.97860717860718,
left,stop,1,0,1,0,12,5,77,2,745.3262929916382,None,1,0.7310159206390381,745.3262929916382,None,746.1775357723236,None,747.1625669002533,747.52969789505,747.1625669002533,747.52969789505,746.1775357723236,None,746.1775357723236,None,746.1775357723236,None,300,150,0,True,225.09002685546875,340.2242660522461,left,748.6258099079132,None,pp_01,icub,clamp,2021_Dec_20_1613,exp,2021.2.3,59.97860717860718,
right,stop,2,0,2,0,0,0,0,5,767.7295308113098,None,1,11.640492916107178,767.7295308113098,None,779.4703378677368,None,780.4814457893372,780.8386378288269,780.4814457893372,780.8386378288269,779.4703378677368,None,779.4703378677368,None,779.4703378677368,None,250,150,0,True,311.02776527404785,295.1242923736572,right,781.9763720035553,None,pp_01,icub,clamp,2021_Dec_20_1613,exp,2021.2.3,59.97860717860718,
left,stop,2,0,2,0,0,1,1,2,782.4944198131561,None,1,0.042951107025146484,782.4944198131561,None,782.6608769893646,None,783.6781687736511,784.0044598579407,783.6781687736511,784.0044598579407,782.6608769893646,None,782.6608769893646,None,782.6608769893646,None,250,100,0,True,292.44494438171387,298.59232902526855,left,785.1243808269501,None,pp_01,icub,clamp,2021_Dec_20_1613,exp,2021.2.3,59.97860717860718,
left,go,2,0,2,0,0,2,2,0,785.6437258720398,None,1,0.28850412368774414,785.6437258720398,None,786.0605249404907,None,787.0619878768921,787.427953004837,787.0619878768921,787.427953004837,786.0605249404907,None,786.0605249404907,None,786.0605249404907,None,-1,-1,1,True,268.326997756958,433.28332901000977,left,788.6619329452515,None,pp_01,icub,clamp,2021_Dec_20_1613,exp,2021.2.3,59.97860717860718,
left,go,2,0,2,0,0,3,3,0,789.1738438606262,None,1,0.021075010299682617,789.1738438606262,None,789.2852878570557,None,790.2896499633789,790.6272509098053,790.2896499633789,790.6272509098053,789.2852878570557,None,789.2852878570557,None,789.2852878570557,None,-1,-1,1,True,345.6737995147705,291.49627685546875,left,791.7931377887726,None,pp_01,icub,clamp,2021_Dec_20_1613,exp,2021.2.3,59.97860717860718,
left,stop,2,0,2,0,0,4,4,2,792.3094639778137,None,1,0.12580299377441406,792.3094639778137,None,792.5394468307495,None,793.5390927791595,793.888612985611,793.5390927791595,793.888612985611,792.5394468307495,None,792.5394468307495,None,792.5394468307495,None,200,100,0,True,342.18883514404297,309.01217460632324,left,795.0800349712372,None,pp_01,icub,clamp,2021_Dec_20_1613,exp,2021.2.3,59.97860717860718,
left,go,2,0,2,0,0,5,5,0,795.5836968421936,None,1,0.2926030158996582,795.5836968421936,None,795.9993698596954,None,797.0065679550171,797.3537809848785,797.0065679550171,797.3537809848785,795.9993698596954,None,795.9993698596954,None,795.9993698596954,None,-1,-1,1,True,341.097354888916,301.82695388793945,left,798.5538899898529,None,pp_01,icub,clamp,2021_Dec_20_1613,exp,2021.2.3,59.97860717860718,
left,go,2,0,2,0,1,0,6,1,799.050048828125,None,1,0.10115289688110352,799.050048828125,None,799.2801349163055,None,800.3021788597107,800.6582579612732,800.3021788597107,800.6582579612732,799.2801349163055,None,799.2801349163055,None,799.2801349163055,None,-1,-1,1,True,296.8251705169678,332.29637145996094,left,801.8200328350067,None,pp_01,icub,clamp,2021_Dec_20_1613,exp,2021.2.3,59.97860717860718,
left,go,2,0,2,0,1,1,7,0,802.3411738872528,None,1,0.07724213600158691,802.3411738872528,None,802.5138039588928,None,803.5116529464722,803.880676984787,803.5116529464722,803.880676984787,802.5138039588928,None,802.5138039588928,None,802.5138039588928,None,-1,-1,1,True,309.51619148254395,275.53772926330566,left,804.9848728179932,None,pp_01,icub,clamp,2021_Dec_20_1613,exp,2021.2.3,59.97860717860718,
left,stop,2,0,2,0,1,2,8,2,805.5061869621277,None,1,0.4906630516052246,805.5061869621277,None,806.1012377738953,None,807.0808169841766,807.4402129650116,807.0808169841766,807.4402129650116,806.1012377738953,None,806.1012377738953,None,806.1012377738953,None,150,100,0,True,368.9885139465332,312.70790100097656,left,808.6822819709778,None,pp_01,icub,clamp,2021_Dec_20_1613,exp,2021.2.3,59.97860717860718,
right,stop,2,0,2,0,1,3,9,5,809.202966928482,None,1,0.3787050247192383,809.202966928482,None,809.6877839565277,None,810.6790578365326,811.0348038673401,810.6790578365326,811.0348038673401,809.6877839565277,None,809.6877839565277,None,809.6877839565277,None,100,100,1,True,375.255823135376,-1.0,-1,814.9659109115601,None,pp_01,icub,clamp,2021_Dec_20_1613,exp,2021.2.3,59.97860717860718,
left,go,2,0,2,0,1,4,10,0,815.4594438076019,None,1,0.34560394287109375,815.4594438076019,None,815.886412858963,None,816.8865728378296,817.2345149517059,816.8865728378296,817.2345149517059,815.886412858963,None,815.886412858963,None,815.886412858963,None,-1,-1,1,True,483.64734649658203,538.4128093719482,left,818.7889199256897,None,pp_01,icub,clamp,2021_Dec_20_1613,exp,2021.2.3,59.97860717860718,
left,go,2,0,2,0,1,5,11,1,819.3086040019989,None,1,0.6464419364929199,819.3086040019989,None,820.0934319496155,None,821.0729429721832,821.4264678955078,821.0729429721832,821.4264678955078,820.0934319496155,None,820.0934319496155,None,820.0934319496155,None,-1,-1,1,True,282.1180820465088,252.68030166625977,left,822.4961538314819,None,pp_01,icub,clamp,2021_Dec_20_1613,exp,2021.2.3,59.97860717860718,
left,go,2,0,2,0,2,0,12,0,823.0101358890533,None,1,0.5899341106414795,823.0101358890533,None,823.7367677688599,None,824.7311568260193,825.0830268859863,824.7311568260193,825.0830268859863,823.7367677688599,None,823.7367677688599,None,823.7367677688599,None,-1,-1,1,True,356.813907623291,307.57951736450195,left,826.2791559696198,None,pp_01,icub,clamp,2021_Dec_20_1613,exp,2021.2.3,59.97860717860718,
right,go,2,0,2,0,2,1,13,4,826.7863719463348,None,1,0.036303043365478516,826.7863719463348,None,826.8924949169159,None,827.9031598567963,828.2502238750458,827.9031598567963,828.2502238750458,826.8924949169159,None,826.8924949169159,None,826.8924949169159,None,-1,-1,1,True,522.6607322692871,344.33531761169434,right,829.6311719417572,None,pp_01,icub,clamp,2021_Dec_20_1613,exp,2021.2.3,59.97860717860718,
left,go,2,0,2,0,2,2,14,1,830.1640548706055,None,1,0.11162805557250977,830.1640548706055,None,830.3855068683624,None,831.4027078151703,831.7263369560242,831.4027078151703,831.7263369560242,830.3855068683624,None,830.3855068683624,None,830.3855068683624,None,-1,-1,1,True,365.8878803253174,365.91148376464844,left,833.0231449604034,None,pp_01,icub,clamp,2021_Dec_20_1613,exp,2021.2.3,59.97860717860718,
left,go,2,0,2,0,2,3,15,1,833.5308058261871,None,1,0.13320112228393555,833.5308058261871,None,833.7668869495392,None,834.7538678646088,835.0878489017487,834.7538678646088,835.0878489017487,833.7668869495392,None,833.7668869495392,None,833.7668869495392,None,-1,-1,1,True,594.3036079406738,370.61023712158203,left,836.6143198013306,None,pp_01,icub,clamp,2021_Dec_20_1613,exp,2021.2.3,59.97860717860718,
right,go,2,0,2,0,2,4,16,3,837.1230549812317,None,1,0.10674905776977539,837.1230549812317,None,837.3586268424988,None,838.3677258491516,838.7306818962097,838.3677258491516,838.7306818962097,837.3586268424988,None,837.3586268424988,None,837.3586268424988,None,-1,-1,1,True,452.1329402923584,415.7085418701172,right,840.1231968402863,None,pp_01,icub,clamp,2021_Dec_20_1613,exp,2021.2.3,59.97860717860718,
right,go,2,0,2,0,2,5,17,4,840.6313908100128,None,1,0.45350098609924316,840.6313908100128,None,841.199893951416,None,842.2241308689117,842.5754759311676,842.2241308689117,842.5754759311676,841.199893951416,None,841.199893951416,None,841.199893951416,None,-1,-1,1,True,496.07086181640625,217.73695945739746,right,843.7953507900238,None,pp_01,icub,clamp,2021_Dec_20_1613,exp,2021.2.3,59.97860717860718,
left,stop,2,0,2,0,3,0,18,2,844.3074748516083,None,1,0.1830899715423584,844.3074748516083,None,844.6026048660278,None,845.6087558269501,845.965705871582,845.6087558269501,845.965705871582,844.6026048660278,None,844.6026048660278,None,844.6026048660278,None,100,150,1,True,474.56812858581543,-1.0,-1,849.9734838008881,None,pp_01,icub,clamp,2021_Dec_20_1613,exp,2021.2.3,59.97860717860718,
right,go,2,0,2,0,3,1,19,3,850.5057528018951,None,1,0.2535080909729004,850.5057528018951,None,850.8713448047638,None,851.8668818473816,852.2168698310852,851.8668818473816,852.2168698310852,850.8713448047638,None,850.8713448047638,None,850.8713448047638,None,-1,-1,1,True,307.91687965393066,346.09484672546387,right,853.3965339660645,None,pp_01,icub,clamp,2021_Dec_20_1613,exp,2021.2.3,59.97860717860718,
right,stop,2,0,2,0,3,2,20,5,853.9191279411316,None,1,0.3764309883117676,853.9191279411316,None,854.3970999717712,None,855.3995227813721,855.7499539852142,855.3995227813721,855.7499539852142,854.3970999717712,None,854.3970999717712,None,854.3970999717712,None,150,150,0,True,549.3361949920654,295.6047058105469,right,857.1323318481445,None,pp_01,icub,clamp,2021_Dec_20_1613,exp,2021.2.3,59.97860717860718,
right,go,2,0,2,0,3,3,21,3,857.626485824585,None,1,0.0835268497467041,857.626485824585,None,857.7903978824615,None,858.800096988678,859.1579258441925,858.800096988678,859.1579258441925,857.7903978824615,None,857.7903978824615,None,857.7903978824615,None,-1,-1,1,True,403.32865715026855,330.5654525756836,right,860.4144809246063,None,pp_01,icub,clamp,2021_Dec_20_1613,exp,2021.2.3,59.97860717860718,
right,go,2,0,2,0,3,4,22,4,860.935418844223,None,1,0.15901684761047363,860.935418844223,None,861.2295768260956,None,862.2052037715912,862.5595848560333,862.2052037715912,862.5595848560333,861.2295768260956,None,861.2295768260956,None,861.2295768260956,None,-1,-1,1,True,347.17655181884766,409.42907333374023,right,863.8485598564148,None,pp_01,icub,clamp,2021_Dec_20_1613,exp,2021.2.3,59.97860717860718,
right,go,2,0,2,0,3,5,23,4,864.3537578582764,None,1,0.12598013877868652,864.3537578582764,None,864.5862128734589,None,865.6216559410095,865.9799349308014,865.6216559410095,865.9799349308014,864.5862128734589,None,864.5862128734589,None,864.5862128734589,None,-1,-1,1,True,479.7632694244385,320.7228183746338,right,867.2706339359283,None,pp_01,icub,clamp,2021_Dec_20_1613,exp,2021.2.3,59.97860717860718,
left,stop,2,0,2,0,4,0,24,2,867.7757589817047,None,1,0.2601189613342285,867.7757589817047,None,868.1366808414459,None,869.1414539813995,869.5096387863159,869.1414539813995,869.5096387863159,868.1366808414459,None,868.1366808414459,None,868.1366808414459,None,150,100,1,True,410.0325107574463,-1.0,-1,873.451486825943,None,pp_01,icub,clamp,2021_Dec_20_1613,exp,2021.2.3,59.97860717860718,
right,go,2,0,2,0,4,1,25,4,873.982017993927,None,1,0.29454898834228516,873.982017993927,None,874.4093489646912,None,875.3938338756561,875.7493708133698,875.3938338756561,875.7493708133698,874.4093489646912,None,874.4093489646912,None,874.4093489646912,None,-1,-1,1,True,292.27423667907715,420.1693534851074,right,876.9992899894714,None,pp_01,icub,clamp,2021_Dec_20_1613,exp,2021.2.3,59.97860717860718,
right,go,2,0,2,0,4,2,26,3,877.5094029903412,None,1,0.13519597053527832,877.5094029903412,None,877.7444548606873,None,878.7432289123535,879.088604927063,878.7432289123535,879.088604927063,877.7444548606873,None,877.7444548606873,None,877.7444548606873,None,-1,-1,1,True,345.92533111572266,367.13671684265137,right,880.3626189231873,None,pp_01,icub,clamp,2021_Dec_20_1613,exp,2021.2.3,59.97860717860718,
right,stop,2,0,2,0,4,3,27,5,880.8762528896332,None,1,0.07712984085083008,880.8762528896332,None,881.0485508441925,None,882.0819909572601,882.4326958656311,882.0819909572601,882.4326958656311,881.0485508441925,None,881.0485508441925,None,881.0485508441925,None,200,100,1,True,335.01672744750977,-1.0,-1,886.2555527687073,None,pp_01,icub,clamp,2021_Dec_20_1613,exp,2021.2.3,59.97860717860718,
left,stop,2,0,2,0,4,4,28,2,886.7877678871155,None,1,0.2519237995147705,886.7877678871155,None,887.153146982193,None,888.1292409896851,888.4764578342438,888.1292409896851,888.4764578342438,887.153146982193,None,887.153146982193,None,887.153146982193,None,200,150,0,True,283.327579498291,296.21243476867676,left,889.6065399646759,None,pp_01,icub,clamp,2021_Dec_20_1613,exp,2021.2.3,59.97860717860718,
right,go,2,0,2,0,4,5,29,3,890.1058559417725,None,1,0.6384289264678955,890.1058559417725,None,890.8346979618073,None,891.8452799320221,892.1931707859039,891.8452799320221,892.1931707859039,890.8346979618073,None,890.8346979618073,None,890.8346979618073,None,-1,-1,1,True,330.62148094177246,412.4114513397217,right,893.4598619937897,None,pp_01,icub,clamp,2021_Dec_20_1613,exp,2021.2.3,59.97860717860718,
left,go,2,0,2,0,5,0,30,1,893.9687969684601,None,1,0.05033516883850098,893.9687969684601,None,894.1395678520203,None,895.1363317966461,895.4916398525238,895.1363317966461,895.4916398525238,894.1395678520203,None,894.1395678520203,None,894.1395678520203,None,-1,-1,1,True,418.75362396240234,345.2720642089844,left,896.7837917804718,None,pp_01,icub,clamp,2021_Dec_20_1613,exp,2021.2.3,59.97860717860718,
left,go,2,0,2,0,5,1,31,0,897.2873239517212,None,1,0.13032984733581543,897.2873239517212,None,897.5122849941254,None,898.5264408588409,898.8888177871704,898.5264408588409,898.8888177871704,897.5122849941254,None,897.5122849941254,None,897.5122849941254,None,-1,-1,1,True,350.8579730987549,370.0892925262451,left,900.1362547874451,None,pp_01,icub,clamp,2021_Dec_20_1613,exp,2021.2.3,59.97860717860718,
right,go,2,0,2,0,5,2,32,4,900.6541788578033,None,1,0.061419010162353516,900.6541788578033,None,900.8269069194794,None,901.8620119094849,902.1964588165283,901.8620119094849,902.1964588165283,900.8269069194794,None,900.8269069194794,None,900.8269069194794,None,-1,-1,1,True,348.90294075012207,316.1811828613281,right,903.3829579353333,None,pp_01,icub,clamp,2021_Dec_20_1613,exp,2021.2.3,59.97860717860718,
left,go,2,0,2,0,5,3,33,1,903.9023768901825,None,1,0.09813213348388672,903.9023768901825,None,904.1232738494873,None,905.1282739639282,905.4910578727722,905.1282739639282,905.4910578727722,904.1232738494873,None,904.1232738494873,None,904.1232738494873,None,-1,-1,1,True,447.05891609191895,303.76744270324707,left,906.7749588489532,None,pp_01,icub,clamp,2021_Dec_20_1613,exp,2021.2.3,59.97860717860718,
left,go,2,0,2,0,5,4,34,0,907.281495809555,None,1,0.09304308891296387,907.281495809555,None,907.452131986618,None,908.4377529621124,908.7978868484497,908.4377529621124,908.7978868484497,907.452131986618,None,907.452131986618,None,907.452131986618,None,-1,-1,1,True,301.0702133178711,319.1382884979248,left,909.9457488059998,None,pp_01,icub,clamp,2021_Dec_20_1613,exp,2021.2.3,59.97860717860718,
right,stop,2,0,2,0,5,5,35,5,910.4746079444885,None,1,0.07738304138183594,910.4746079444885,None,910.6378588676453,None,911.6351039409637,911.9967048168182,911.6351039409637,911.9967048168182,910.6378588676453,None,910.6378588676453,None,910.6378588676453,None,150,150,0,True,473.48761558532715,315.5643939971924,right,913.3271489143372,None,pp_01,icub,clamp,2021_Dec_20_1613,exp,2021.2.3,59.97860717860718,
right,go,2,0,2,0,6,0,36,4,913.8250977993011,None,1,0.27638912200927734,913.8250977993011,None,914.1818218231201,None,None,None,None,None,914.1818218231201,None,914.1818218231201,None,914.1818218231201,None,,,0,False,-1.0,-1.0,-1,914.2744188308716,None,pp_01,icub,clamp,2021_Dec_20_1613,exp,2021.2.3,59.97860717860718,
left,go,2,0,2,0,6,1,37,0,914.7820107936859,None,1,0.39308691024780273,914.7820107936859,None,915.2739109992981,None,916.2581708431244,916.6101307868958,916.2581708431244,916.6101307868958,915.2739109992981,None,915.2739109992981,None,915.2739109992981,None,-1,-1,1,True,387.0663642883301,334.86032485961914,left,917.8852488994598,None,pp_01,icub,clamp,2021_Dec_20_1613,exp,2021.2.3,59.97860717860718,
right,go,2,0,2,0,6,2,38,3,918.3932528495789,None,1,0.031291961669921875,918.3932528495789,None,918.5052027702332,None,None,None,None,None,918.5052027702332,None,918.5052027702332,None,918.5052027702332,None,,,0,False,-1.0,-1.0,-1,918.644152879715,None,pp_01,icub,clamp,2021_Dec_20_1613,exp,2021.2.3,59.97860717860718,
left,go,2,0,2,0,6,3,39,0,919.1622648239136,None,1,0.6178088188171387,919.1622648239136,None,919.9016189575195,None,920.8734560012817,921.2205197811127,920.8734560012817,921.2205197811127,919.9016189575195,None,919.9016189575195,None,919.9016189575195,None,-1,-1,1,True,347.1651077270508,401.8838405609131,left,922.5427339076996,None,pp_01,icub,clamp,2021_Dec_20_1613,exp,2021.2.3,59.97860717860718,
right,go,2,0,2,0,6,4,40,4,923.050045967102,None,1,0.32994699478149414,923.050045967102,None,923.4706258773804,None,924.495591878891,924.8472969532013,924.495591878891,924.8472969532013,923.4706258773804,None,923.4706258773804,None,923.4706258773804,None,-1,-1,1,True,519.6874141693115,453.0632495880127,right,926.3441708087921,None,pp_01,icub,clamp,2021_Dec_20_1613,exp,2021.2.3,59.97860717860718,
left,go,2,0,2,0,6,5,41,0,926.8763318061829,None,1,1.01485013961792,926.8763318061829,None,928.0105748176575,None,928.9950029850006,929.3489949703217,928.9950029850006,929.3489949703217,928.0105748176575,None,928.0105748176575,None,928.0105748176575,None,-1,-1,1,True,370.6643581390381,350.84080696105957,left,930.599426984787,None,pp_01,icub,clamp,2021_Dec_20_1613,exp,2021.2.3,59.97860717860718,
left,stop,2,0,2,0,7,0,42,2,931.1032938957214,None,1,0.3542499542236328,931.1032938957214,None,931.5810217857361,None,932.6113049983978,932.9697778224945,932.6113049983978,932.9697778224945,931.5810217857361,None,931.5810217857361,None,931.5810217857361,None,150,100,0,True,573.0218887329102,329.9553394317627,left,934.3648579120636,None,pp_01,icub,clamp,2021_Dec_20_1613,exp,2021.2.3,59.97860717860718,
left,stop,2,0,2,0,7,1,43,2,934.8973469734192,None,1,0.6977171897888184,934.8973469734192,None,935.6856079101562,None,936.6953330039978,937.0557599067688,936.6953330039978,937.0557599067688,935.6856079101562,None,935.6856079101562,None,935.6856079101562,None,100,100,1,True,445.10364532470703,-1.0,-1,941.0386970043182,None,pp_01,icub,clamp,2021_Dec_20_1613,exp,2021.2.3,59.97860717860718,
left,go,2,0,2,0,7,2,44,0,941.5329937934875,None,1,0.2803990840911865,941.5329937934875,None,941.897864818573,None,942.872909784317,943.2394487857819,942.872909784317,943.2394487857819,941.897864818573,None,941.897864818573,None,941.897864818573,None,-1,-1,1,True,243.9250946044922,328.18031311035156,left,944.3335478305817,None,pp_01,icub,clamp,2021_Dec_20_1613,exp,2021.2.3,59.97860717860718,
left,go,2,0,2,0,7,3,45,1,944.8432049751282,None,1,0.1479349136352539,944.8432049751282,None,945.0767419338226,None,946.0840518474579,946.4434678554535,946.0840518474579,946.4434678554535,945.0767419338226,None,945.0767419338226,None,945.0767419338226,None,-1,-1,1,True,372.17164039611816,412.9834175109863,left,947.7604358196259,None,pp_01,icub,clamp,2021_Dec_20_1613,exp,2021.2.3,59.97860717860718,
right,stop,2,0,2,0,7,4,46,5,948.2956309318542,None,1,0.2583889961242676,948.2956309318542,None,948.6543278694153,None,949.6563248634338,950.0035197734833,949.6563248634338,950.0035197734833,948.6543278694153,None,948.6543278694153,None,948.6543278694153,None,150,100,1,True,450.0732421875,-1.0,-1,953.9793939590454,None,pp_01,icub,clamp,2021_Dec_20_1613,exp,2021.2.3,59.97860717860718,
left,stop,2,0,2,0,7,5,47,2,954.5108139514923,None,1,0.3077890872955322,954.5108139514923,None,954.9374568462372,None,955.9296197891235,956.283282995224,955.9296197891235,956.283282995224,954.9374568462372,None,954.9374568462372,None,954.9374568462372,None,150,150,0,True,312.2131824493408,312.4384880065918,left,957.4423677921295,None,pp_01,icub,clamp,2021_Dec_20_1613,exp,2021.2.3,59.97860717860718,
right,go,2,0,2,0,8,0,48,3,957.9450778961182,None,1,0.43387699127197266,957.9450778961182,None,958.4852619171143,None,959.4810678958893,959.8374578952789,959.4810678958893,959.8374578952789,958.4852619171143,None,958.4852619171143,None,958.4852619171143,None,-1,-1,1,True,310.21690368652344,370.23401260375977,right,961.0565137863159,None,pp_01,icub,clamp,2021_Dec_20_1613,exp,2021.2.3,59.97860717860718,
right,stop,2,0,2,0,8,1,49,5,961.5825698375702,None,1,0.06370186805725098,961.5825698375702,None,961.7530019283295,None,962.7775897979736,963.1373178958893,962.7775897979736,963.1373178958893,961.7530019283295,None,961.7530019283295,None,961.7530019283295,None,100,150,1,True,372.90096282958984,-1.0,-1,967.0324039459229,None,pp_01,icub,clamp,2021_Dec_20_1613,exp,2021.2.3,59.97860717860718,
right,go,2,0,2,0,8,2,50,3,967.5653939247131,None,1,0.26870107650756836,967.5653939247131,None,967.9307630062103,None,968.9155089855194,969.2713418006897,968.9155089855194,969.2713418006897,967.9307630062103,None,967.9307630062103,None,967.9307630062103,None,-1,-1,1,True,332.61704444885254,310.8959197998047,right,970.4485409259796,None,pp_01,icub,clamp,2021_Dec_20_1613,exp,2021.2.3,59.97860717860718,
right,stop,2,0,2,0,8,3,51,5,970.9525609016418,None,1,0.03357195854187012,970.9525609016418,None,971.0617008209229,None,972.045548915863,972.4057259559631,972.045548915863,972.4057259559631,971.0617008209229,None,971.0617008209229,None,971.0617008209229,None,100,200,0,True,355.0221920013428,303.51710319519043,right,973.6005868911743,None,pp_01,icub,clamp,2021_Dec_20_1613,exp,2021.2.3,59.97860717860718,
right,go,2,0,2,0,8,4,52,3,974.1042218208313,None,1,0.35997891426086426,974.1042218208313,None,974.5830278396606,None,975.5862348079681,975.9319257736206,975.5862348079681,975.9319257736206,974.5830278396606,None,974.5830278396606,None,974.5830278396606,None,-1,-1,1,True,265.1324272155762,516.5352821350098,right,977.2556707859039,None,pp_01,icub,clamp,2021_Dec_20_1613,exp,2021.2.3,59.97860717860718,
left,stop,2,0,2,0,8,5,53,2,977.7736899852753,None,1,0.02635502815246582,977.7736899852753,None,977.885547876358,None,978.8717658519745,979.2294049263,978.8717658519745,979.2294049263,977.885547876358,None,977.885547876358,None,977.885547876358,None,100,150,1,True,309.41271781921387,-1.0,-1,983.0948848724365,None,pp_01,icub,clamp,2021_Dec_20_1613,exp,2021.2.3,59.97860717860718,
left,go,2,0,2,0,9,0,54,1,983.6267278194427,None,1,0.26285600662231445,983.6267278194427,None,983.9920268058777,None,984.9769959449768,985.3289020061493,984.9769959449768,985.3289020061493,983.9920268058777,None,983.9920268058777,None,983.9920268058777,None,-1,-1,1,True,272.92323112487793,320.44482231140137,left,986.4490048885345,None,pp_01,icub,clamp,2021_Dec_20_1613,exp,2021.2.3,59.97860717860718,
left,go,2,0,2,0,9,1,55,1,986.9833188056946,None,1,0.03477597236633301,986.9833188056946,None,987.1508309841156,None,988.1599588394165,988.487076997757,988.1599588394165,988.487076997757,987.1508309841156,None,987.1508309841156,None,987.1508309841156,None,-1,-1,1,True,314.7115707397461,389.99438285827637,left,989.7665598392487,None,pp_01,icub,clamp,2021_Dec_20_1613,exp,2021.2.3,59.97860717860718,
right,stop,2,0,2,0,9,2,56,5,990.3017838001251,None,1,0.053006887435913086,990.3017838001251,None,990.4734869003296,None,991.4679379463196,991.8425049781799,991.4679379463196,991.8425049781799,990.4734869003296,None,990.4734869003296,None,990.4734869003296,None,150,150,1,True,328.261137008667,-1.0,-1,995.6886508464813,None,pp_01,icub,clamp,2021_Dec_20_1613,exp,2021.2.3,59.97860717860718,
right,go,2,0,2,0,9,3,57,3,996.2252278327942,None,1,0.2640979290008545,996.2252278327942,None,996.589136838913,None,997.5628159046173,997.9123618602753,997.5628159046173,997.9123618602753,996.589136838913,None,996.589136838913,None,996.589136838913,None,-1,-1,1,True,322.68691062927246,342.16833114624023,right,999.1285059452057,None,pp_01,icub,clamp,2021_Dec_20_1613,exp,2021.2.3,59.97860717860718,
left,go,2,0,2,0,9,4,58,1,999.6349318027496,None,1,0.06772303581237793,999.6349318027496,None,999.8091559410095,None,1000.8142518997192,1001.1511600017548,1000.8142518997192,1001.1511600017548,999.8091559410095,None,999.8091559410095,None,999.8091559410095,None,-1,-1,1,True,322.5429058074951,439.07761573791504,left,1002.4560668468475,None,pp_01,icub,clamp,2021_Dec_20_1613,exp,2021.2.3,59.97860717860718,
left,stop,2,0,2,0,9,5,59,2,1002.9709458351135,None,1,0.6950578689575195,1002.9709458351135,None,1003.7504677772522,None,1004.7696878910065,1005.1306920051575,1004.7696878910065,1005.1306920051575,1003.7504677772522,None,1003.7504677772522,None,1003.7504677772522,None,150,200,1,True,279.9110412597656,-1.0,-1,1008.8920857906342,None,pp_01,icub,clamp,2021_Dec_20_1613,exp,2021.2.3,59.97860717860718,
right,go,2,0,2,0,10,0,60,4,1009.4248368740082,None,1,0.2652268409729004,1009.4248368740082,None,1009.7905099391937,None,1010.7783489227295,1011.149799823761,1010.7783489227295,1011.149799823761,1009.7905099391937,None,1009.7905099391937,None,1009.7905099391937,None,-1,-1,1,True,249.1905689239502,365.3855323791504,right,1012.2866377830505,None,pp_01,icub,clamp,2021_Dec_20_1613,exp,2021.2.3,59.97860717860718,
right,stop,2,0,2,0,10,1,61,5,1012.8259859085083,None,1,0.5938448905944824,1012.8259859085083,None,1013.5432169437408,None,1014.5244247913361,1014.8695287704468,1014.5244247913361,1014.8695287704468,1013.5432169437408,None,1013.5432169437408,None,1013.5432169437408,None,200,200,0,True,248.1369972229004,359.9352836608887,right,1016.0484828948975,None,pp_01,icub,clamp,2021_Dec_20_1613,exp,2021.2.3,59.97860717860718,
left,go,2,0,2,0,10,2,62,1,1016.566782951355,None,1,0.6101891994476318,1016.566782951355,None,1017.2934029102325,None,1018.2877027988434,1018.6507029533386,1018.2877027988434,1018.6507029533386,1017.2934029102325,None,1017.2934029102325,None,1017.2934029102325,None,-1,-1,1,True,416.3012504577637,375.26440620422363,left,1019.9778528213501,None,pp_01,icub,clamp,2021_Dec_20_1613,exp,2021.2.3,59.97860717860718,
right,go,2,0,2,0,10,3,63,4,1020.4941418170929,None,1,0.2882711887359619,1020.4941418170929,None,1020.9066097736359,None,1021.9047420024872,1022.2236979007721,1021.9047420024872,1022.2236979007721,1020.9066097736359,None,1020.9066097736359,None,1020.9066097736359,None,-1,-1,1,True,375.9002685546875,383.93568992614746,right,1023.539547920227,None,pp_01,icub,clamp,2021_Dec_20_1613,exp,2021.2.3,59.97860717860718,
right,go,2,0,2,0,10,4,64,3,1024.046259880066,None,1,0.02258610725402832,1024.046259880066,None,1024.1543488502502,None,1025.1800649166107,1025.5447299480438,1025.1800649166107,1025.5447299480438,1024.1543488502502,None,1024.1543488502502,None,1024.1543488502502,None,-1,-1,1,True,374.18174743652344,423.2456684112549,right,1026.8333230018616,None,pp_01,icub,clamp,2021_Dec_20_1613,exp,2021.2.3,59.97860717860718,
left,stop,2,0,2,0,10,5,65,2,1027.3394138813019,None,1,0.0945138931274414,1027.3394138813019,None,1027.5142269134521,None,1028.5015358924866,1028.8513369560242,1028.5015358924866,1028.8513369560242,1027.5142269134521,None,1027.5142269134521,None,1027.5142269134521,None,200,150,1,True,310.04786491394043,-1.0,-1,1032.6910548210144,None,pp_01,icub,clamp,2021_Dec_20_1613,exp,2021.2.3,59.97860717860718,
right,go,2,0,2,0,11,0,66,4,1033.2238419055939,None,1,0.3546898365020752,1033.2238419055939,None,1033.7039139270782,None,1034.6900918483734,1035.0583407878876,1034.6900918483734,1035.0583407878876,1033.7039139270782,None,1033.7039139270782,None,1033.7039139270782,None,-1,-1,1,True,375.8811950683594,341.49694442749023,right,1036.306590795517,None,pp_01,icub,clamp,2021_Dec_20_1613,exp,2021.2.3,59.97860717860718,
left,go,2,0,2,0,11,1,67,1,1036.8176379203796,None,1,0.12212014198303223,1036.8176379203796,None,1037.051400899887,None,1038.0534949302673,1038.4034898281097,1038.0534949302673,1038.4034898281097,1037.051400899887,None,1037.051400899887,None,1037.051400899887,None,-1,-1,1,True,347.2630977630615,409.03687477111816,left,1039.6877689361572,None,pp_01,icub,clamp,2021_Dec_20_1613,exp,2021.2.3,59.97860717860718,
right,stop,2,0,2,0,11,2,68,5,1040.2048358917236,None,1,0.12893390655517578,1040.2048358917236,None,1040.4399468898773,None,1041.457956790924,1041.822322845459,1041.457956790924,1041.822322845459,1040.4399468898773,None,1040.4399468898773,None,1040.4399468898773,None,250,150,1,True,340.5141830444336,-1.0,-1,1045.683825969696,None,pp_01,icub,clamp,2021_Dec_20_1613,exp,2021.2.3,59.97860717860718,
right,stop,2,0,2,0,11,3,69,5,1046.2188289165497,None,1,0.49725914001464844,1046.2188289165497,None,1046.8342158794403,None,1047.8113658428192,1048.168063879013,1047.8113658428192,1048.168063879013,1046.8342158794403,None,1046.8342158794403,None,1046.8342158794403,None,250,200,0,True,285.1600646972656,398.2429504394531,right,1049.4150159358978,None,pp_01,icub,clamp,2021_Dec_20_1613,exp,2021.2.3,59.97860717860718,
right,go,2,0,2,0,11,4,70,3,1049.929388999939,None,1,0.6823499202728271,1049.929388999939,None,1050.722892999649,None,1051.7369298934937,1052.0913529396057,1051.7369298934937,1052.0913529396057,1050.722892999649,None,1050.722892999649,None,1050.722892999649,None,-1,-1,1,True,383.2058906555176,412.92667388916016,right,1053.425761938095,None,pp_01,icub,clamp,2021_Dec_20_1613,exp,2021.2.3,59.97860717860718,
right,go,2,0,2,0,11,5,71,4,1053.9501938819885,None,1,0.7048389911651611,1053.9501938819885,None,1054.7354757785797,None,1055.7440068721771,1056.1014478206635,1055.7440068721771,1056.1014478206635,1054.7354757785797,None,1054.7354757785797,None,1054.7354757785797,None,-1,-1,1,True,469.1164493560791,367.0027256011963,right,1057.4602918624878,None,pp_01,icub,clamp,2021_Dec_20_1613,exp,2021.2.3,59.97860717860718,
right,go,2,0,2,0,12,0,72,3,1057.9613358974457,None,1,0.3071920871734619,1057.9613358974457,None,1058.377040863037,None,1059.3901047706604,1059.741721868515,1059.3901047706604,1059.741721868515,1058.377040863037,None,1058.377040863037,None,1058.377040863037,None,-1,-1,1,True,643.4426307678223,376.93309783935547,right,1061.27796292305,None,pp_01,icub,clamp,2021_Dec_20_1613,exp,2021.2.3,59.97860717860718,
left,go,2,0,2,0,12,1,73,1,1061.7969717979431,None,1,0.04120802879333496,1061.7969717979431,None,1061.9662628173828,None,None,None,None,None,1061.9662628173828,None,1061.9662628173828,None,1061.9662628173828,None,,,0,False,-1.0,-1.0,-1,1062.217099905014,None,pp_01,icub,clamp,2021_Dec_20_1613,exp,2021.2.3,59.97860717860718,
left,stop,2,0,2,0,12,2,74,2,1062.7368898391724,None,1,0.16000103950500488,1062.7368898391724,None,1062.979182958603,None,1063.9642448425293,1064.3194978237152,1063.9642448425293,1064.3194978237152,1062.979182958603,None,1062.979182958603,None,1062.979182958603,None,250,150,0,True,427.83498764038086,411.56005859375,left,1065.6912717819214,None,pp_01,icub,clamp,2021_Dec_20_1613,exp,2021.2.3,59.97860717860718,
right,stop,2,0,2,0,12,3,75,5,1066.2063648700714,None,1,0.3629579544067383,1066.2063648700714,None,1066.6891939640045,None,1067.689749956131,1068.0410709381104,1067.689749956131,1068.0410709381104,1066.6891939640045,None,1066.6891939640045,None,1066.6891939640045,None,200,150,1,True,447.1583366394043,-1.0,-1,1072.01780295372,None,pp_01,icub,clamp,2021_Dec_20_1613,exp,2021.2.3,59.97860717860718,
right,go,2,0,2,0,12,4,76,4,1072.5115809440613,None,1,0.5560750961303711,1072.5115809440613,None,1073.1851909160614,None,1074.1973178386688,1074.5531899929047,1074.1973178386688,1074.5531899929047,1073.1851909160614,None,1073.1851909160614,None,1073.1851909160614,None,-1,-1,1,True,247.5123405456543,316.6344165802002,right,1075.6406638622284,None,pp_01,icub,clamp,2021_Dec_20_1613,exp,2021.2.3,59.97860717860718,
left,go,2,0,2,0,12,5,77,0,1076.155324935913,None,1,0.1706240177154541,1076.155324935913,None,1076.450838804245,None,1077.464725971222,1077.8153438568115,1077.464725971222,1077.8153438568115,1076.450838804245,None,1076.450838804245,None,1076.450838804245,None,-1,-1,1,True,425.0040054321289,362.7514839172363,left,1079.1382148265839,None,pp_01,icub,clamp,2021_Dec_20_1613,exp,2021.2.3,59.97860717860718,
left,stop,3,0,3,0,0,0,0,2,1100.8121769428253,None,1,19.10011911392212,1100.8121769428253,None,1119.9881038665771,None,1120.9937307834625,1121.345062971115,1120.9937307834625,1121.345062971115,1119.9881038665771,None,1119.9881038665771,None,1119.9881038665771,None,200,200,1,True,427.74415016174316,-1.0,-1,1125.3051898479462,None,pp_01,icub,clamp,2021_Dec_20_1613,exp,2021.2.3,59.97860717860718,
right,stop,3,0,3,0,0,1,1,5,1125.8375079631805,None,1,0.30829501152038574,1125.8375079631805,None,1126.26500582695,None,1127.2471389770508,1127.6154658794403,1127.2471389770508,1127.6154658794403,1126.26500582695,None,1126.26500582695,None,1126.26500582695,None,250,200,1,True,348.3724594116211,-1.0,-1,1131.4937679767609,None,pp_01,icub,clamp,2021_Dec_20_1613,exp,2021.2.3,59.97860717860718,
right,go,3,0,3,0,0,2,2,4,1132.027319908142,None,1,0.3423459529876709,1132.027319908142,None,1132.4550368785858,None,1133.4538757801056,1133.8053798675537,1133.4538757801056,1133.8053798675537,1132.4550368785858,None,1132.4550368785858,None,1132.4550368785858,None,-1,-1,1,True,368.46208572387695,461.28368377685547,right,1135.150409936905,None,pp_01,icub,clamp,2021_Dec_20_1613,exp,2021.2.3,59.97860717860718,
left,go,3,0,3,0,0,3,3,0,1135.667713880539,None,1,0.13230085372924805,1135.667713880539,None,1135.8886377811432,None,1136.9057447910309,1137.2561049461365,1136.9057447910309,1137.2561049461365,1135.8886377811432,None,1135.8886377811432,None,1135.8886377811432,None,-1,-1,1,True,277.9994010925293,379.6830177307129,left,1138.4328727722168,None,pp_01,icub,clamp,2021_Dec_20_1613,exp,2021.2.3,59.97860717860718,
left,go,3,0,3,0,0,4,4,1,1138.952842950821,None,1,0.04911303520202637,1138.952842950821,None,1139.1192708015442,None,1140.1294748783112,1140.473531961441,1140.1294748783112,1140.473531961441,1139.1192708015442,None,1139.1192708015442,None,1139.1192708015442,None,-1,-1,1,True,354.5489311218262,351.53770446777344,left,1141.714469909668,None,pp_01,icub,clamp,2021_Dec_20_1613,exp,2021.2.3,59.97860717860718,
left,stop,3,0,3,0,0,5,5,2,1142.2498588562012,None,1,0.10123085975646973,1142.2498588562012,None,1142.4785859584808,None,1143.4942419528961,1143.8464798927307,1143.4942419528961,1143.8464798927307,1142.4785859584808,None,1142.4785859584808,None,1142.4785859584808,None,250,250,0,True,338.34052085876465,441.39933586120605,left,1145.1588888168335,None,pp_01,icub,clamp,2021_Dec_20_1613,exp,2021.2.3,59.97860717860718,
right,go,3,0,3,0,1,0,6,3,1145.6735048294067,None,1,0.32634997367858887,1145.6735048294067,None,1146.0905058383942,None,1147.117224931717,1147.4713118076324,1147.117224931717,1147.4713118076324,1146.0905058383942,None,1146.0905058383942,None,1146.0905058383942,None,-1,-1,1,True,392.1833038330078,515.843391418457,right,1148.9003429412842,None,pp_01,icub,clamp,2021_Dec_20_1613,exp,2021.2.3,59.97860717860718,
left,go,3,0,3,0,1,1,7,1,1149.4036657810211,None,1,0.49984002113342285,1149.4036657810211,None,1150.0060639381409,None,1150.9928448200226,1151.3507759571075,1150.9928448200226,1151.3507759571075,1150.0060639381409,None,1150.0060639381409,None,1150.0060639381409,None,-1,-1,1,True,358.80374908447266,325.9143829345703,left,1152.562409877777,None,pp_01,icub,clamp,2021_Dec_20_1613,exp,2021.2.3,59.97860717860718,
right,stop,3,0,3,0,1,2,8,5,1153.096774816513,None,1,0.21195006370544434,1153.096774816513,None,1153.394075870514,None,1154.4133439064026,1154.768227815628,1154.4133439064026,1154.768227815628,1153.394075870514,None,1153.394075870514,None,1153.394075870514,None,200,250,0,True,404.146671295166,402.0235538482666,right,1156.1121549606323,None,pp_01,icub,clamp,2021_Dec_20_1613,exp,2021.2.3,59.97860717860718,
left,stop,3,0,3,0,1,3,9,2,1156.6275079250336,None,1,0.11446309089660645,1156.6275079250336,None,1156.8555898666382,None,1157.8505148887634,1158.2032837867737,1157.8505148887634,1158.2032837867737,1156.8555898666382,None,1156.8555898666382,None,1156.8555898666382,None,200,200,1,True,312.9239082336426,-1.0,-1,1162.0517559051514,None,pp_01,icub,clamp,2021_Dec_20_1613,exp,2021.2.3,59.97860717860718,
right,go,3,0,3,0,1,4,10,4,1162.5439298152924,None,1,0.4843180179595947,1162.5439298152924,None,1163.1558079719543,None,1164.1449007987976,1164.5002479553223,1164.1449007987976,1164.5002479553223,1163.1558079719543,None,1163.1558079719543,None,1163.1558079719543,None,-1,-1,1,True,299.6833324432373,355.70788383483887,right,1165.6889789104462,None,pp_01,icub,clamp,2021_Dec_20_1613,exp,2021.2.3,59.97860717860718,
left,stop,3,0,3,0,1,5,11,2,1166.2117238044739,None,1,0.1916978359222412,1166.2117238044739,None,1166.5089838504791,None,1167.531231880188,1167.8898639678955,1167.531231880188,1167.8898639678955,1166.5089838504791,None,1166.5089838504791,None,1166.5089838504791,None,250,200,0,True,290.53544998168945,345.37243843078613,left,1169.022089958191,None,pp_01,icub,clamp,2021_Dec_20_1613,exp,2021.2.3,59.97860717860718,
left,stop,3,0,3,0,2,0,12,2,1169.5426409244537,None,1,0.026721954345703125,1169.5426409244537,None,1169.6487159729004,None,1170.6303617954254,1170.9875619411469,1170.6303617954254,1170.9875619411469,1169.6487159729004,None,1169.6487159729004,None,1169.6487159729004,None,200,200,0,True,372.0846176147461,368.3652877807617,left,1172.2993059158325,None,pp_01,icub,clamp,2021_Dec_20_1613,exp,2021.2.3,59.97860717860718,
left,go,3,0,3,0,2,1,13,1,1172.8134257793427,None,1,0.4641571044921875,1172.8134257793427,None,1173.357792854309,None,1174.3632729053497,1174.70591878891,1174.3632729053497,1174.70591878891,1173.357792854309,None,1173.357792854309,None,1173.357792854309,None,-1,-1,1,True,366.962194442749,497.3461627960205,left,1176.0940079689026,None,pp_01,icub,clamp,2021_Dec_20_1613,exp,2021.2.3,59.97860717860718,
