Holder,Action,blocks.thisRepN,blocks.thisTrialN,blocks.thisN,blocks.thisIndex,trials.thisRepN,trials.thisTrialN,trials.thisN,trials.thisIndex,start_msg.started,start_msg.stopped,RespButton_start_trial.keys,RespButton_start_trial.rt,RespButton_start_trial.started,RespButton_start_trial.stopped,GREEN.started,GREEN.stopped,LEFT_RED.started,LEFT_RED.stopped,RIGHT_RED.started,RIGHT_RED.stopped,LEFT_CIRCLE.started,LEFT_CIRCLE.stopped,CENTER_CIRCLE.started,CENTER_CIRCLE.stopped,RIGHT_CIRCLE.started,RIGHT_CIRCLE.stopped,SOUND_DELAY_MS_LEFT,SOUND_DELAY_MS_RIGHT,CORRECT,VALIDITY,RELEASE_TIME,TOUCH_TIME,BOTTLE_RESPONSE_POSITION,text.started,text.stopped,pid,left_position,right_position,date,expName,psychopyVersion,frameRate,
left,stop,0,0,0,0,0,0,0,2,38.698103189468384,None,1,14.721972942352295,38.698103189468384,None,53.4956841468811,None,54.48616814613342,54.83257818222046,54.48616814613342,54.83257818222046,53.4956841468811,None,53.4956841468811,None,53.4956841468811,None,500,500,0,True,362.31303215026855,587.0511531829834,left,56.348937034606934,None,pp_06,icub,clamp,2021_Dec_21_1521,exp,2021.2.3,59.54401167511826,
right,go,0,0,0,0,0,1,1,4,56.856263160705566,None,1,0.9450600147247314,56.856263160705566,None,57.89205002784729,None,58.897396087646484,59.258480072021484,58.897396087646484,59.258480072021484,57.89205002784729,None,57.89205002784729,None,57.89205002784729,None,-1,-1,1,True,418.49732398986816,599.4718074798584,right,60.80292105674744,None,pp_06,icub,clamp,2021_Dec_21_1521,exp,2021.2.3,59.54401167511826,
right,stop,0,0,0,0,0,2,2,5,61.31625008583069,None,1,0.5249431133270264,61.31625008583069,None,61.92164611816406,None,62.92758107185364,63.292293071746826,62.92758107185364,63.292293071746826,61.92164611816406,None,61.92164611816406,None,61.92164611816406,None,450,500,0,True,249.47071075439453,381.8540573120117,right,64.45186305046082,None,pp_06,icub,clamp,2021_Dec_21_1521,exp,2021.2.3,59.54401167511826,
right,go,0,0,0,0,0,3,3,4,64.98343014717102,None,1,0.32926392555236816,64.98343014717102,None,65.4035279750824,None,66.41666412353516,66.75615811347961,66.41666412353516,66.75615811347961,65.4035279750824,None,65.4035279750824,None,65.4035279750824,None,-1,-1,1,True,346.15373611450195,463.3052349090576,right,68.1125340461731,None,pp_06,icub,clamp,2021_Dec_21_1521,exp,2021.2.3,59.54401167511826,
right,go,0,0,0,0,0,4,4,3,68.62084817886353,None,1,0.25061988830566406,68.62084817886353,None,68.97593402862549,None,69.97495102882385,70.3319640159607,69.97495102882385,70.3319640159607,68.97593402862549,None,68.97593402862549,None,68.97593402862549,None,-1,-1,1,True,410.92753410339355,417.1302318572998,right,71.68641495704651,None,pp_06,icub,clamp,2021_Dec_21_1521,exp,2021.2.3,59.54401167511826,
right,go,0,0,0,0,0,5,5,4,72.18595600128174,None,1,0.3115091323852539,72.18595600128174,None,72.60375499725342,None,73.62944102287292,73.98173999786377,73.62944102287292,73.98173999786377,72.60375499725342,None,72.60375499725342,None,72.60375499725342,None,-1,-1,1,True,367.1526908874512,392.406702041626,right,75.25359296798706,None,pp_06,icub,clamp,2021_Dec_21_1521,exp,2021.2.3,59.54401167511826,
left,go,0,0,0,0,1,0,6,1,75.77273297309875,None,1,0.3464338779449463,75.77273297309875,None,76.25196599960327,None,77.25263619422913,77.61343598365784,77.25263619422913,77.61343598365784,76.25196599960327,None,76.25196599960327,None,76.25196599960327,None,-1,-1,1,True,341.68171882629395,465.3635025024414,left,78.9500880241394,None,pp_06,icub,clamp,2021_Dec_21_1521,exp,2021.2.3,59.54401167511826,
left,go,0,0,0,0,1,1,7,0,79.48609805107117,None,1,0.2704920768737793,79.48609805107117,None,79.84210896492004,None,80.83735799789429,81.20064401626587,80.83735799789429,81.20064401626587,79.84210896492004,None,79.84210896492004,None,79.84210896492004,None,-1,-1,1,True,286.4656448364258,412.8422737121582,left,82.42378401756287,None,pp_06,icub,clamp,2021_Dec_21_1521,exp,2021.2.3,59.54401167511826,
right,go,0,0,0,0,1,2,8,3,82.93258309364319,None,1,0.32683706283569336,82.93258309364319,None,83.3499960899353,None,84.37896418571472,84.73713397979736,84.37896418571472,84.73713397979736,83.3499960899353,None,83.3499960899353,None,83.3499960899353,None,-1,-1,1,True,291.5384769439697,450.00219345092773,right,85.96765303611755,None,pp_06,icub,clamp,2021_Dec_21_1521,exp,2021.2.3,59.54401167511826,
left,go,0,0,0,0,1,3,9,0,86.46862411499023,None,1,0.27036213874816895,86.46862411499023,None,86.82454109191895,None,87.8245689868927,88.18402099609375,87.8245689868927,88.18402099609375,86.82454109191895,None,86.82454109191895,None,86.82454109191895,None,-1,-1,1,True,311.276912689209,361.73033714294434,left,89.38938212394714,None,pp_06,icub,clamp,2021_Dec_21_1521,exp,2021.2.3,59.54401167511826,
left,stop,0,0,0,0,1,4,10,2,89.89064311981201,None,1,0.30944299697875977,89.89064311981201,None,90.31043410301208,None,91.34045696258545,91.69801306724548,91.34045696258545,91.69801306724548,90.31043410301208,None,90.31043410301208,None,90.31043410301208,None,,,0,False,-1.0,-1.0,-1,92.14741897583008,None,pp_06,icub,clamp,2021_Dec_21_1521,exp,2021.2.3,59.54401167511826,
right,go,0,0,0,0,1,5,11,3,92.64220404624939,None,1,1.0748307704925537,92.64220404624939,None,93.79749011993408,None,94.82078814506531,95.15017318725586,94.82078814506531,95.15017318725586,93.79749011993408,None,93.79749011993408,None,93.79749011993408,None,-1,-1,1,True,367.1305179595947,470.54529190063477,right,96.50657415390015,None,pp_06,icub,clamp,2021_Dec_21_1521,exp,2021.2.3,59.54401167511826,
left,go,0,0,0,0,2,0,12,1,97.01819705963135,None,1,0.3989081382751465,97.01819705963135,None,97.50258207321167,None,98.49252319335938,98.85967111587524,98.49252319335938,98.85967111587524,97.50258207321167,None,97.50258207321167,None,97.50258207321167,None,-1,-1,1,True,453.91035079956055,443.7878131866455,left,100.27226996421814,None,pp_06,icub,clamp,2021_Dec_21_1521,exp,2021.2.3,59.54401167511826,
right,go,0,0,0,0,2,1,13,3,100.7893750667572,None,1,0.3273651599884033,100.7893750667572,None,101.20716309547424,None,102.20634508132935,102.53712296485901,102.20634508132935,102.53712296485901,101.20716309547424,None,101.20716309547424,None,101.20716309547424,None,-1,-1,1,True,354.4144630432129,452.3026943206787,right,103.9106650352478,None,pp_06,icub,clamp,2021_Dec_21_1521,exp,2021.2.3,59.54401167511826,
right,go,0,0,0,0,2,2,14,3,104.41107106208801,None,1,0.36708903312683105,104.41107106208801,None,104.89398407936096,None,105.92094707489014,106.25049114227295,105.92094707489014,106.25049114227295,104.89398407936096,None,104.89398407936096,None,104.89398407936096,None,-1,-1,1,True,303.50661277770996,412.84799575805664,right,107.48962497711182,None,pp_06,icub,clamp,2021_Dec_21_1521,exp,2021.2.3,59.54401167511826,
right,stop,0,0,0,0,2,3,15,5,108.00298404693604,None,1,0.3291959762573242,108.00298404693604,None,108.42319297790527,None,109.41882705688477,109.77240204811096,109.41882705688477,109.77240204811096,108.42319297790527,None,108.42319297790527,None,108.42319297790527,None,450,450,0,True,249.5279312133789,435.86206436157227,right,110.9974160194397,None,pp_06,icub,clamp,2021_Dec_21_1521,exp,2021.2.3,59.54401167511826,
left,go,0,0,0,0,2,4,16,0,111.49804902076721,None,1,0.5020859241485596,111.49804902076721,None,112.10138201713562,None,113.12015509605408,113.46917700767517,113.12015509605408,113.46917700767517,112.10138201713562,None,112.10138201713562,None,112.10138201713562,None,-1,-1,1,True,438.98820877075195,443.11070442199707,left,114.88565111160278,None,pp_06,icub,clamp,2021_Dec_21_1521,exp,2021.2.3,59.54401167511826,
left,go,0,0,0,0,2,5,17,1,115.40415406227112,None,1,0.4632890224456787,115.40415406227112,None,115.99559807777405,None,117.00028896331787,117.34917402267456,117.00028896331787,117.34917402267456,115.99559807777405,None,115.99559807777405,None,115.99559807777405,None,-1,-1,1,True,441.82276725769043,436.6569519042969,left,118.74545001983643,None,pp_06,icub,clamp,2021_Dec_21_1521,exp,2021.2.3,59.54401167511826,
left,stop,0,0,0,0,3,0,18,2,119.25550508499146,None,1,0.31340813636779785,119.25550508499146,None,119.67496800422668,None,120.67163705825806,121.038565158844,120.67163705825806,121.038565158844,119.67496800422668,None,119.67496800422668,None,119.67496800422668,None,450,400,0,True,425.4143238067627,525.8660316467285,left,122.5225601196289,None,pp_06,icub,clamp,2021_Dec_21_1521,exp,2021.2.3,59.54401167511826,
left,go,0,0,0,0,3,1,19,0,123.04343795776367,None,1,0.36171698570251465,123.04343795776367,None,123.52010917663574,None,124.52759218215942,124.87004804611206,124.52759218215942,124.87004804611206,123.52010917663574,None,123.52010917663574,None,123.52010917663574,None,-1,-1,1,True,368.6234951019287,492.8545951843262,left,126.29443097114563,None,pp_06,icub,clamp,2021_Dec_21_1521,exp,2021.2.3,59.54401167511826,
left,stop,0,0,0,0,3,2,20,2,126.80281805992126,None,1,0.4831230640411377,126.80281805992126,None,127.40455508232117,None,128.40984296798706,128.76451110839844,128.40984296798706,128.76451110839844,127.40455508232117,None,127.40455508232117,None,127.40455508232117,None,400,400,0,True,1029.1543006896973,382.8456401824951,left,130.70077300071716,None,pp_06,icub,clamp,2021_Dec_21_1521,exp,2021.2.3,59.54401167511826,
right,stop,0,0,0,0,3,3,21,5,131.2117509841919,None,1,0.4012620449066162,131.2117509841919,None,131.69339799880981,None,132.70765709877014,133.05157899856567,132.70765709877014,133.05157899856567,131.69339799880981,None,131.69339799880981,None,131.69339799880981,None,350,400,0,True,461.8360996246338,386.6534233093262,right,134.43275213241577,None,pp_06,icub,clamp,2021_Dec_21_1521,exp,2021.2.3,59.54401167511826,
left,go,0,0,0,0,3,4,22,1,134.95084714889526,None,1,0.4972350597381592,134.95084714889526,None,135.54395198822021,None,136.54999613761902,136.91199898719788,136.54999613761902,136.91199898719788,135.54395198822021,None,135.54395198822021,None,135.54395198822021,None,-1,-1,1,True,399.11937713623047,511.0955238342285,left,138.33623600006104,None,pp_06,icub,clamp,2021_Dec_21_1521,exp,2021.2.3,59.54401167511826,
left,go,0,0,0,0,3,5,23,1,138.84478116035461,None,1,0.3082289695739746,138.84478116035461,None,139.26393508911133,None,140.26982402801514,140.6232831478119,140.26982402801514,140.6232831478119,139.26393508911133,None,139.26393508911133,None,139.26393508911133,None,-1,-1,1,True,334.25092697143555,515.6528949737549,left,141.99236702919006,None,pp_06,icub,clamp,2021_Dec_21_1521,exp,2021.2.3,59.54401167511826,
left,go,0,0,0,0,4,0,24,1,142.50547099113464,None,1,0.2620360851287842,142.50547099113464,None,142.86324095726013,None,143.88916110992432,144.2398760318756,143.88916110992432,144.2398760318756,142.86324095726013,None,142.86324095726013,None,142.86324095726013,None,-1,-1,1,True,361.41180992126465,435.03713607788086,left,145.5595531463623,None,pp_06,icub,clamp,2021_Dec_21_1521,exp,2021.2.3,59.54401167511826,
right,stop,0,0,0,0,4,1,25,5,146.07466101646423,None,1,0.3214430809020996,146.07466101646423,None,146.49670100212097,None,147.49464011192322,147.85548400878906,147.49464011192322,147.85548400878906,146.49670100212097,None,146.49670100212097,None,146.49670100212097,None,350,350,0,True,348.538875579834,472.9599952697754,right,149.21377205848694,None,pp_06,icub,clamp,2021_Dec_21_1521,exp,2021.2.3,59.54401167511826,
left,go,0,0,0,0,4,2,26,1,149.73063206672668,None,1,0.2461071014404297,149.73063206672668,None,150.0873429775238,None,151.1222541332245,151.48268103599548,151.1222541332245,151.48268103599548,150.0873429775238,None,150.0873429775238,None,150.0873429775238,None,-1,-1,1,True,389.6942138671875,498.9328384399414,left,152.86215209960938,None,pp_06,icub,clamp,2021_Dec_21_1521,exp,2021.2.3,59.54401167511826,
right,stop,0,0,0,0,4,3,27,5,153.3742790222168,None,1,0.26209592819213867,153.3742790222168,None,153.7298879623413,None,154.7435851097107,155.0919201374054,154.7435851097107,155.0919201374054,153.7298879623413,None,153.7298879623413,None,153.7298879623413,None,,,0,False,-1.0,-1.0,-1,155.5656921863556,None,pp_06,icub,clamp,2021_Dec_21_1521,exp,2021.2.3,59.54401167511826,
left,go,0,0,0,0,4,4,28,1,156.09558701515198,None,1,0.8018679618835449,156.09558701515198,None,157.01383209228516,None,157.9999840259552,158.35541796684265,157.9999840259552,158.35541796684265,157.01383209228516,None,157.01383209228516,None,157.01383209228516,None,-1,-1,1,True,350.60858726501465,470.80540657043457,left,159.7127959728241,None,pp_06,icub,clamp,2021_Dec_21_1521,exp,2021.2.3,59.54401167511826,
right,go,0,0,0,0,4,5,29,4,160.2289261817932,None,1,0.35803794860839844,160.2289261817932,None,160.7023410797119,None,161.71699118614197,162.05398416519165,161.71699118614197,162.05398416519165,160.7023410797119,None,160.7023410797119,None,160.7023410797119,None,-1,-1,1,True,356.29868507385254,503.30233573913574,right,163.4673089981079,None,pp_06,icub,clamp,2021_Dec_21_1521,exp,2021.2.3,59.54401167511826,
left,stop,0,0,0,0,5,0,30,2,163.9844491481781,None,1,0.34374308586120605,163.9844491481781,None,164.40335416793823,None,165.42511510849,165.78266716003418,165.42511510849,165.78266716003418,164.40335416793823,None,164.40335416793823,None,164.40335416793823,None,350,300,0,True,307.16633796691895,462.56279945373535,left,167.08657097816467,None,pp_06,icub,clamp,2021_Dec_21_1521,exp,2021.2.3,59.54401167511826,
right,go,0,0,0,0,5,1,31,3,167.58629417419434,None,1,0.39430689811706543,167.58629417419434,None,168.0661220550537,None,169.05853700637817,169.41804003715515,169.05853700637817,169.41804003715515,168.0661220550537,None,168.0661220550537,None,168.0661220550537,None,-1,-1,1,True,326.4882564544678,463.30857276916504,right,170.76045513153076,None,pp_06,icub,clamp,2021_Dec_21_1521,exp,2021.2.3,59.54401167511826,
left,go,0,0,0,0,5,2,32,1,171.26698803901672,None,1,0.20948410034179688,171.26698803901672,None,171.56218814849854,None,172.57648015022278,172.934415102005,172.57648015022278,172.934415102005,171.56218814849854,None,171.56218814849854,None,171.56218814849854,None,-1,-1,1,True,393.6893939971924,424.12257194519043,left,174.27420902252197,None,pp_06,icub,clamp,2021_Dec_21_1521,exp,2021.2.3,59.54401167511826,
left,go,0,0,0,0,5,3,33,0,174.795184135437,None,1,0.1361861228942871,174.795184135437,None,175.03237009048462,None,176.02509999275208,176.382080078125,176.02509999275208,176.382080078125,175.03237009048462,None,175.03237009048462,None,175.03237009048462,None,-1,-1,1,True,359.27772521972656,445.9950923919678,left,177.71950006484985,None,pp_06,icub,clamp,2021_Dec_21_1521,exp,2021.2.3,59.54401167511826,
left,stop,0,0,0,0,5,4,34,2,178.23439502716064,None,1,0.274522066116333,178.23439502716064,None,178.58930206298828,None,179.58816504478455,179.93807816505432,179.58816504478455,179.93807816505432,178.58930206298828,None,178.58930206298828,None,178.58930206298828,None,300,300,0,True,308.5508346557617,378.6191940307617,left,181.18733716011047,None,pp_06,icub,clamp,2021_Dec_21_1521,exp,2021.2.3,59.54401167511826,
left,go,0,0,0,0,5,5,35,0,181.70423197746277,None,1,0.17364788055419922,181.70423197746277,None,181.99112105369568,None,182.98850107192993,183.33730506896973,182.98850107192993,183.33730506896973,181.99112105369568,None,181.99112105369568,None,181.99112105369568,None,-1,-1,1,True,239.06230926513672,405.58481216430664,left,184.51625418663025,None,pp_06,icub,clamp,2021_Dec_21_1521,exp,2021.2.3,59.54401167511826,
left,stop,0,0,0,0,6,0,36,2,185.0383861064911,None,1,0.14577794075012207,185.0383861064911,None,185.26951813697815,None,186.27347111701965,186.6285011768341,186.27347111701965,186.6285011768341,185.26951813697815,None,185.26951813697815,None,185.26951813697815,None,250,300,0,True,99.29299354553223,374.41420555114746,left,187.6109549999237,None,pp_06,icub,clamp,2021_Dec_21_1521,exp,2021.2.3,59.54401167511826,
right,go,0,0,0,0,6,1,37,4,188.1149640083313,None,1,0.2928791046142578,188.1149640083313,None,188.53091716766357,None,189.54580307006836,189.90564107894897,189.54580307006836,189.90564107894897,188.53091716766357,None,188.53091716766357,None,188.53091716766357,None,-1,-1,1,True,560.7223510742188,432.93118476867676,right,191.43456411361694,None,pp_06,icub,clamp,2021_Dec_21_1521,exp,2021.2.3,59.54401167511826,
right,go,0,0,0,0,6,2,38,3,191.95524096488953,None,1,0.08823990821838379,191.95524096488953,None,192.1291470527649,None,193.14660215377808,193.49061799049377,193.14660215377808,193.49061799049377,192.1291470527649,None,192.1291470527649,None,192.1291470527649,None,-1,-1,1,True,252.180814743042,381.7896842956543,right,194.65320897102356,None,pp_06,icub,clamp,2021_Dec_21_1521,exp,2021.2.3,59.54401167511826,
left,go,0,0,0,0,6,3,39,0,195.17250609397888,None,1,0.1362769603729248,195.17250609397888,None,195.4096920490265,None,196.43061709403992,196.79213404655457,196.43061709403992,196.79213404655457,195.4096920490265,None,195.4096920490265,None,195.4096920490265,None,-1,-1,1,True,351.4559268951416,420.4442501068115,left,198.08650708198547,None,pp_06,icub,clamp,2021_Dec_21_1521,exp,2021.2.3,59.54401167511826,
left,go,0,0,0,0,6,4,40,0,198.5924210548401,None,1,0.33621907234191895,198.5924210548401,None,199.00901103019714,None,200.02733516693115,200.37992405891418,200.02733516693115,200.37992405891418,199.00901103019714,None,199.00901103019714,None,199.00901103019714,None,-1,-1,1,True,255.82289695739746,383.4545612335205,left,201.54824304580688,None,pp_06,icub,clamp,2021_Dec_21_1521,exp,2021.2.3,59.54401167511826,
left,go,0,0,0,0,6,5,41,0,202.06575918197632,None,1,0.11394619941711426,202.06575918197632,None,202.2983000278473,None,203.3233721256256,203.6719560623169,203.3233721256256,203.6719560623169,202.2983000278473,None,202.2983000278473,None,202.2983000278473,None,-1,-1,1,True,393.59426498413086,403.456449508667,left,204.99432706832886,None,pp_06,icub,clamp,2021_Dec_21_1521,exp,2021.2.3,59.54401167511826,
left,go,0,0,0,0,7,0,42,1,205.50220799446106,None,1,0.4074070453643799,205.50220799446106,None,206.04275608062744,None,207.04849100112915,207.39442110061646,207.04849100112915,207.39442110061646,206.04275608062744,None,206.04275608062744,None,206.04275608062744,None,-1,-1,1,True,402.1468162536621,494.83180046081543,left,208.8235080242157,None,pp_06,icub,clamp,2021_Dec_21_1521,exp,2021.2.3,59.54401167511826,
right,stop,0,0,0,0,7,1,43,5,209.32929515838623,None,1,0.2224268913269043,209.32929515838623,None,209.62757396697998,None,210.63653898239136,210.9994761943817,210.63653898239136,210.9994761943817,209.62757396697998,None,209.62757396697998,None,209.62757396697998,None,200,300,0,True,568.6638355255127,509.9015235900879,right,212.60700917243958,None,pp_06,icub,clamp,2021_Dec_21_1521,exp,2021.2.3,59.54401167511826,
right,go,0,0,0,0,7,2,44,4,213.10887217521667,None,1,0.5167498588562012,213.10887217521667,None,213.7113790512085,None,214.72365498542786,215.08384108543396,214.72365498542786,215.08384108543396,213.7113790512085,None,213.7113790512085,None,213.7113790512085,None,-1,-1,1,True,383.5456371307373,473.5698699951172,right,216.47170495986938,None,pp_06,icub,clamp,2021_Dec_21_1521,exp,2021.2.3,59.54401167511826,
right,go,0,0,0,0,7,3,45,3,216.97555899620056,None,1,0.18693304061889648,216.97555899620056,None,217.25987195968628,None,218.27260518074036,218.61849808692932,218.27260518074036,218.61849808692932,217.25987195968628,None,217.25987195968628,None,217.25987195968628,None,-1,-1,1,True,446.12956047058105,409.2381000518799,right,220.00322198867798,None,pp_06,icub,clamp,2021_Dec_21_1521,exp,2021.2.3,59.54401167511826,
left,stop,0,0,0,0,7,4,46,2,220.51383996009827,None,1,0.19982004165649414,220.51383996009827,None,220.80881118774414,None,221.815279006958,222.13762211799622,221.815279006958,222.13762211799622,220.80881118774414,None,220.80881118774414,None,220.80881118774414,None,200,250,0,True,464.6494388580322,571.3458061218262,left,223.73910903930664,None,pp_06,icub,clamp,2021_Dec_21_1521,exp,2021.2.3,59.54401167511826,
left,go,0,0,0,0,7,5,47,0,224.2412610054016,None,1,1.6407318115234375,224.2412610054016,None,225.9572720527649,None,226.948744058609,227.28624296188354,226.948744058609,227.28624296188354,225.9572720527649,None,225.9572720527649,None,225.9572720527649,None,-1,-1,1,True,283.2050323486328,545.7522869110107,left,228.68825101852417,None,pp_06,icub,clamp,2021_Dec_21_1521,exp,2021.2.3,59.54401167511826,
right,go,0,0,0,0,8,0,48,4,229.21004509925842,None,1,0.3645501136779785,229.21004509925842,None,229.68928003311157,None,230.72125005722046,231.06825399398804,230.72125005722046,231.06825399398804,229.68928003311157,None,229.68928003311157,None,229.68928003311157,None,-1,-1,1,True,473.3579158782959,434.0543746948242,right,232.50783014297485,None,pp_06,icub,clamp,2021_Dec_21_1521,exp,2021.2.3,59.54401167511826,
right,go,0,0,0,0,8,1,49,4,233.01631903648376,None,1,0.2583799362182617,233.01631903648376,None,233.3755350112915,None,234.37279796600342,234.73645997047424,234.37279796600342,234.73645997047424,233.3755350112915,None,233.3755350112915,None,233.3755350112915,None,-1,-1,1,True,431.02359771728516,362.80059814453125,right,236.0639181137085,None,pp_06,icub,clamp,2021_Dec_21_1521,exp,2021.2.3,59.54401167511826,
right,stop,0,0,0,0,8,2,50,5,236.57262802124023,None,1,0.13708186149597168,236.57262802124023,None,236.80443215370178,None,237.83202815055847,238.17717504501343,237.83202815055847,238.17717504501343,236.80443215370178,None,236.80443215370178,None,236.80443215370178,None,150,250,0,True,474.0445613861084,540.4934883117676,right,239.7221109867096,None,pp_06,icub,clamp,2021_Dec_21_1521,exp,2021.2.3,59.54401167511826,
right,go,0,0,0,0,8,3,51,4,240.24618697166443,None,1,0.2824270725250244,240.24618697166443,None,240.6040141582489,None,241.59549498558044,241.95791101455688,241.59549498558044,241.95791101455688,240.6040141582489,None,240.6040141582489,None,240.6040141582489,None,-1,-1,1,True,447.70097732543945,404.15000915527344,right,243.33677697181702,None,pp_06,icub,clamp,2021_Dec_21_1521,exp,2021.2.3,59.54401167511826,
right,go,0,0,0,0,8,4,52,3,243.85911512374878,None,1,0.15374994277954102,243.85911512374878,None,244.09327697753906,None,245.09209609031677,245.46066308021545,245.09209609031677,245.46066308021545,244.09327697753906,None,244.09327697753906,None,244.09327697753906,None,-1,-1,1,True,330.6841850280762,460.1922035217285,right,246.77635216712952,None,pp_06,icub,clamp,2021_Dec_21_1521,exp,2021.2.3,59.54401167511826,
right,stop,0,0,0,0,8,5,53,5,247.2867829799652,None,1,0.23890089988708496,247.2867829799652,None,247.638512134552,None,248.6537630558014,249.01038312911987,248.6537630558014,249.01038312911987,247.638512134552,None,247.638512134552,None,247.638512134552,None,150,200,0,True,435.08338928222656,505.83863258361816,right,250.48362112045288,None,pp_06,icub,clamp,2021_Dec_21_1521,exp,2021.2.3,59.54401167511826,
right,go,0,0,0,0,9,0,54,3,251.0022850036621,None,1,0.2903139591217041,251.0022850036621,None,251.42080903053284,None,252.42179203033447,252.7906379699707,252.42179203033447,252.7906379699707,251.42080903053284,None,251.42080903053284,None,251.42080903053284,None,-1,-1,1,True,405.6684970855713,471.9383716583252,right,254.1901400089264,None,pp_06,icub,clamp,2021_Dec_21_1521,exp,2021.2.3,59.54401167511826,
left,go,0,0,0,0,9,1,55,1,254.7069489955902,None,1,0.3247339725494385,254.7069489955902,None,255.1273090839386,None,256.13283610343933,256.4611780643463,256.13283610343933,256.4611780643463,255.1273090839386,None,255.1273090839386,None,255.1273090839386,None,-1,-1,1,True,397.4905014038086,513.6919021606445,left,257.934189081192,None,pp_06,icub,clamp,2021_Dec_21_1521,exp,2021.2.3,59.54401167511826,
right,go,0,0,0,0,9,2,56,4,258.4384160041809,None,1,0.4161369800567627,258.4384160041809,None,258.9781370162964,None,259.9944591522217,260.35466504096985,259.9944591522217,260.35466504096985,258.9781370162964,None,258.9781370162964,None,258.9781370162964,None,-1,-1,1,True,351.6674041748047,422.79958724975586,right,261.6526679992676,None,pp_06,icub,clamp,2021_Dec_21_1521,exp,2021.2.3,59.54401167511826,
right,stop,0,0,0,0,9,3,57,5,262.16630601882935,None,1,0.28433895111083984,262.16630601882935,None,262.5833971500397,None,263.6108160018921,263.9660711288452,263.6108160018921,263.9660711288452,262.5833971500397,None,262.5833971500397,None,262.5833971500397,None,150,150,0,True,389.96005058288574,458.1942558288574,right,265.34117102622986,None,pp_06,icub,clamp,2021_Dec_21_1521,exp,2021.2.3,59.54401167511826,
right,go,0,0,0,0,9,4,58,3,265.84215116500854,None,1,0.28182005882263184,265.84215116500854,None,266.1998481750488,None,267.2252690792084,267.57145714759827,267.2252690792084,267.57145714759827,266.1998481750488,None,266.1998481750488,None,266.1998481750488,None,-1,-1,1,True,457.04197883605957,449.9483108520508,right,269.01419496536255,None,pp_06,icub,clamp,2021_Dec_21_1521,exp,2021.2.3,59.54401167511826,
left,go,0,0,0,0,9,5,59,0,269.526869058609,None,1,0.23892903327941895,269.526869058609,None,269.87843799591064,None,270.87144708633423,271.21646904945374,270.87144708633423,271.21646904945374,269.87843799591064,None,269.87843799591064,None,269.87843799591064,None,-1,-1,1,True,464.977502822876,498.0955123901367,left,272.74550104141235,None,pp_06,icub,clamp,2021_Dec_21_1521,exp,2021.2.3,59.54401167511826,
right,go,0,0,0,0,10,0,60,3,273.2473909854889,None,1,0.3130779266357422,273.2473909854889,None,273.66759300231934,None,274.670734167099,275.0245580673218,274.670734167099,275.0245580673218,273.66759300231934,None,273.66759300231934,None,273.66759300231934,None,-1,-1,1,True,300.42529106140137,431.02407455444336,right,276.27682304382324,None,pp_06,icub,clamp,2021_Dec_21_1521,exp,2021.2.3,59.54401167511826,
right,stop,0,0,0,0,10,1,61,5,276.8137731552124,None,1,0.13696599006652832,276.8137731552124,None,277.0462200641632,None,278.0460891723633,278.40643405914307,278.0460891723633,278.40643405914307,277.0462200641632,None,277.0462200641632,None,277.0462200641632,None,150,100,0,True,134.0944766998291,505.5127143859863,right,279.5651590824127,None,pp_06,icub,clamp,2021_Dec_21_1521,exp,2021.2.3,59.54401167511826,
right,go,0,0,0,0,10,2,62,4,280.07431507110596,None,1,0.3184549808502197,280.07431507110596,None,280.48566198349,None,281.4882791042328,281.83440709114075,281.4882791042328,281.83440709114075,280.48566198349,None,280.48566198349,None,280.48566198349,None,-1,-1,1,True,433.08568000793457,476.70912742614746,right,283.30711817741394,None,pp_06,icub,clamp,2021_Dec_21_1521,exp,2021.2.3,59.54401167511826,
right,go,0,0,0,0,10,3,63,3,283.8115801811218,None,1,0.338040828704834,283.8115801811218,None,284.23020100593567,None,285.26124000549316,285.61482310295105,285.26124000549316,285.61482310295105,284.23020100593567,None,284.23020100593567,None,284.23020100593567,None,-1,-1,1,True,368.29066276550293,415.010929107666,right,286.8812050819397,None,pp_06,icub,clamp,2021_Dec_21_1521,exp,2021.2.3,59.54401167511826,
left,stop,0,0,0,0,10,4,64,2,287.39807295799255,None,1,0.15039491653442383,287.39807295799255,None,287.634122133255,None,288.654422044754,289.0152201652527,288.654422044754,289.0152201652527,287.634122133255,None,287.634122133255,None,287.634122133255,None,150,50,0,True,382.7166557312012,400.16722679138184,left,290.29036808013916,None,pp_06,icub,clamp,2021_Dec_21_1521,exp,2021.2.3,59.54401167511826,
left,go,0,0,0,0,10,5,65,1,290.79948711395264,None,1,0.6258549690246582,290.79948711395264,None,291.52637219429016,None,292.5365240573883,292.8844540119171,292.5365240573883,292.8844540119171,291.52637219429016,None,291.52637219429016,None,291.52637219429016,None,-1,-1,1,True,420.83740234375,443.7227249145508,left,294.28414607048035,None,pp_06,icub,clamp,2021_Dec_21_1521,exp,2021.2.3,59.54401167511826,
right,stop,0,0,0,0,11,0,66,5,294.7929141521454,None,1,0.21257305145263672,294.7929141521454,None,295.09096598625183,None,296.1209189891815,296.4743640422821,296.1209189891815,296.4743640422821,295.09096598625183,None,295.09096598625183,None,295.09096598625183,None,100,50,0,True,461.4372253417969,492.1581745147705,right,297.92169308662415,None,pp_06,icub,clamp,2021_Dec_21_1521,exp,2021.2.3,59.54401167511826,
left,go,0,0,0,0,11,1,67,0,298.4212980270386,None,1,1.5674731731414795,298.4212980270386,None,300.0795850753784,None,301.08788418769836,301.4484951496124,301.08788418769836,301.4484951496124,300.0795850753784,None,300.0795850753784,None,300.0795850753784,None,-1,-1,1,True,499.35126304626465,488.2173538208008,left,302.9751651287079,None,pp_06,icub,clamp,2021_Dec_21_1521,exp,2021.2.3,59.54401167511826,
left,stop,0,0,0,0,11,2,68,2,303.4907910823822,None,1,0.23672914505004883,303.4907910823822,None,303.845911026001,None,304.8452160358429,305.2067720890045,304.8452160358429,305.2067720890045,303.845911026001,None,303.845911026001,None,303.845911026001,None,100,0,0,True,495.12767791748047,543.2400703430176,left,306.78087306022644,None,pp_06,icub,clamp,2021_Dec_21_1521,exp,2021.2.3,59.54401167511826,
right,stop,0,0,0,0,11,3,69,5,307.30207204818726,None,1,1.1258800029754639,307.30207204818726,None,308.5288209915161,None,309.52922010421753,309.89139318466187,309.52922010421753,309.89139318466187,308.5288209915161,None,308.5288209915161,None,308.5288209915161,None,50,0,1,True,494.79150772094727,-1.0,-1,313.91630506515503,None,pp_06,icub,clamp,2021_Dec_21_1521,exp,2021.2.3,59.54401167511826,
left,stop,0,0,0,0,11,4,70,2,314.4098331928253,None,1,0.6711678504943848,314.4098331928253,None,315.2072081565857,None,316.1875231266022,316.51798915863037,316.1875231266022,316.51798915863037,315.2072081565857,None,315.2072081565857,None,315.2072081565857,None,50,50,1,True,400.93135833740234,-1.0,-1,320.48918104171753,None,pp_06,icub,clamp,2021_Dec_21_1521,exp,2021.2.3,59.54401167511826,
right,go,0,0,0,0,11,5,71,4,321.0204281806946,None,1,0.4804649353027344,321.0204281806946,None,321.63238406181335,None,322.6050879955292,322.95528507232666,322.6050879955292,322.95528507232666,321.63238406181335,None,321.63238406181335,None,321.63238406181335,None,-1,-1,1,True,462.37897872924805,616.2476539611816,right,324.5788700580597,None,pp_06,icub,clamp,2021_Dec_21_1521,exp,2021.2.3,59.54401167511826,
right,go,0,0,0,0,12,0,72,4,325.1083309650421,None,1,0.15932083129882812,325.1083309650421,None,325.3433201313019,None,326.3670949935913,326.7024681568146,326.3670949935913,326.7024681568146,325.3433201313019,None,325.3433201313019,None,325.3433201313019,None,-1,-1,1,True,450.7005214691162,530.7736396789551,right,328.2056121826172,None,pp_06,icub,clamp,2021_Dec_21_1521,exp,2021.2.3,59.54401167511826,
right,stop,0,0,0,0,12,1,73,5,328.7150831222534,None,1,0.2822871208190918,328.7150831222534,None,329.07279205322266,None,330.06925797462463,330.42247796058655,330.06925797462463,330.42247796058655,329.07279205322266,None,329.07279205322266,None,329.07279205322266,None,100,50,1,True,526.8781185150146,-1.0,-1,334.4943790435791,None,pp_06,icub,clamp,2021_Dec_21_1521,exp,2021.2.3,59.54401167511826,
left,stop,0,0,0,0,12,2,74,2,335.0252740383148,None,1,0.1966691017150879,335.0252740383148,None,335.32770013809204,None,336.30827617645264,336.66488313674927,336.30827617645264,336.66488313674927,335.32770013809204,None,335.32770013809204,None,335.32770013809204,None,100,100,1,True,388.83042335510254,-1.0,-1,340.5844111442566,None,pp_06,icub,clamp,2021_Dec_21_1521,exp,2021.2.3,59.54401167511826,
left,go,0,0,0,0,12,3,75,1,341.11528611183167,None,1,0.5615789890289307,341.11528611183167,None,341.78915214538574,None,342.7635600566864,343.1080231666565,342.7635600566864,343.1080231666565,341.78915214538574,None,341.78915214538574,None,341.78915214538574,None,-1,-1,1,True,465.91687202453613,509.0336799621582,left,344.6262550354004,None,pp_06,icub,clamp,2021_Dec_21_1521,exp,2021.2.3,59.54401167511826,
left,go,0,0,0,0,12,4,76,0,345.1442551612854,None,1,0.2722198963165283,345.1442551612854,None,345.5022461414337,None,346.51713514328003,346.8752269744873,346.51713514328003,346.8752269744873,345.5022461414337,None,345.5022461414337,None,345.5022461414337,None,-1,-1,1,True,404.4456481933594,451.55930519104004,left,348.26263308525085,None,pp_06,icub,clamp,2021_Dec_21_1521,exp,2021.2.3,59.54401167511826,
left,stop,0,0,0,0,12,5,77,2,348.76560616493225,None,1,0.09562802314758301,348.76560616493225,None,348.9365870952606,None,349.9661591053009,350.335116147995,349.9661591053009,350.335116147995,348.9365870952606,None,348.9365870952606,None,348.9365870952606,None,150,100,0,True,369.112491607666,386.7759704589844,left,351.58544301986694,None,pp_06,icub,clamp,2021_Dec_21_1521,exp,2021.2.3,59.54401167511826,
right,go,1,0,1,0,0,0,0,4,415.1181139945984,None,1,13.715977907180786,415.1181139945984,None,428.9388279914856,None,429.93265199661255,430.2826659679413,429.93265199661255,430.2826659679413,428.9388279914856,None,428.9388279914856,None,428.9388279914856,None,-1,-1,1,True,468.3699607849121,558.4824085235596,right,431.8718030452728,None,pp_06,icub,clamp,2021_Dec_21_1521,exp,2021.2.3,59.54401167511826,
left,go,1,0,1,0,0,1,1,1,432.37930512428284,None,1,0.3438880443572998,432.37930512428284,None,432.7984070777893,None,433.80738711357117,434.175194978714,433.80738711357117,434.175194978714,432.7984070777893,None,432.7984070777893,None,432.7984070777893,None,-1,-1,1,True,379.47607040405273,529.5305252075195,left,435.5903170108795,None,pp_06,icub,clamp,2021_Dec_21_1521,exp,2021.2.3,59.54401167511826,
left,go,1,0,1,0,0,2,2,0,436.11091899871826,None,1,0.3251941204071045,436.11091899871826,None,436.5316209793091,None,437.55997800827026,437.91815996170044,437.55997800827026,437.91815996170044,436.5316209793091,None,436.5316209793091,None,436.5316209793091,None,-1,-1,1,True,357.6183319091797,453.80687713623047,left,439.2399730682373,None,pp_06,icub,clamp,2021_Dec_21_1521,exp,2021.2.3,59.54401167511826,
right,stop,1,0,1,0,0,3,3,5,439.7564971446991,None,1,0.3417329788208008,439.7564971446991,None,440.173593044281,None,441.18846702575684,441.5333471298218,441.18846702575684,441.5333471298218,440.173593044281,None,440.173593044281,None,440.173593044281,None,100,100,0,True,364.6731376647949,448.8968849182129,right,442.88266706466675,None,pp_06,icub,clamp,2021_Dec_21_1521,exp,2021.2.3,59.54401167511826,
left,go,1,0,1,0,0,4,4,0,443.41200709342957,None,1,0.5329780578613281,443.41200709342957,None,444.0203881263733,None,445.02654814720154,445.375226020813,445.02654814720154,445.375226020813,444.0203881263733,None,444.0203881263733,None,444.0203881263733,None,-1,-1,1,True,447.6771354675293,665.30442237854,left,447.0220720767975,None,pp_06,icub,clamp,2021_Dec_21_1521,exp,2021.2.3,59.54401167511826,
right,go,1,0,1,0,0,5,5,4,447.5312030315399,None,1,0.1937551498413086,447.5312030315399,None,447.82557916641235,None,448.82611298561096,449.1739761829376,448.82611298561096,449.1739761829376,447.82557916641235,None,447.82557916641235,None,447.82557916641235,None,-1,-1,1,True,395.9157466888428,489.0415668487549,right,450.58393716812134,None,pp_06,icub,clamp,2021_Dec_21_1521,exp,2021.2.3,59.54401167511826,
right,go,1,0,1,0,1,0,6,4,451.1194751262665,None,1,0.16674494743347168,451.1194751262665,None,451.4143121242523,None,452.42933797836304,452.7821559906006,452.42933797836304,452.7821559906006,451.4143121242523,None,451.4143121242523,None,451.4143121242523,None,-1,-1,1,True,352.66757011413574,438.19212913513184,right,454.1042990684509,None,pp_06,icub,clamp,2021_Dec_21_1521,exp,2021.2.3,59.54401167511826,
right,go,1,0,1,0,1,1,7,4,454.6238741874695,None,1,0.08580994606018066,454.6238741874695,None,454.79388308525085,None,455.82173895835876,456.18114399909973,455.82173895835876,456.18114399909973,454.79388308525085,None,454.79388308525085,None,454.79388308525085,None,-1,-1,1,True,287.5823974609375,422.4114418029785,right,457.40935707092285,None,pp_06,icub,clamp,2021_Dec_21_1521,exp,2021.2.3,59.54401167511826,
right,go,1,0,1,0,1,2,8,4,457.92655897140503,None,1,0.08508992195129395,457.92655897140503,None,458.0961880683899,None,459.1140720844269,459.4747941493988,459.1140720844269,459.4747941493988,458.0961880683899,None,458.0961880683899,None,458.0961880683899,None,-1,-1,1,True,429.87918853759766,452.23140716552734,right,460.87168312072754,None,pp_06,icub,clamp,2021_Dec_21_1521,exp,2021.2.3,59.54401167511826,
left,go,1,0,1,0,1,3,9,0,461.3896269798279,None,1,0.2362377643585205,461.3896269798279,None,461.74162197113037,None,462.7342619895935,463.07745909690857,462.7342619895935,463.07745909690857,461.74162197113037,None,461.74162197113037,None,461.74162197113037,None,-1,-1,1,True,373.5835552215576,463.15932273864746,left,464.4862480163574,None,pp_06,icub,clamp,2021_Dec_21_1521,exp,2021.2.3,59.54401167511826,
left,go,1,0,1,0,1,4,10,0,465.00414514541626,None,1,0.09570503234863281,465.00414514541626,None,465.21831607818604,None,466.2346351146698,466.5916020870209,466.2346351146698,466.5916020870209,465.21831607818604,None,465.21831607818604,None,465.21831607818604,None,-1,-1,1,True,429.410457611084,414.13092613220215,left,467.94257616996765,None,pp_06,icub,clamp,2021_Dec_21_1521,exp,2021.2.3,59.54401167511826,
right,go,1,0,1,0,1,5,11,4,468.4593119621277,None,1,0.09955501556396484,468.4593119621277,None,468.6345751285553,None,469.65452218055725,470.0220990180969,469.65452218055725,470.0220990180969,468.6345751285553,None,468.6345751285553,None,468.6345751285553,None,-1,-1,1,True,374.56202507019043,371.20866775512695,right,471.2592351436615,None,pp_06,icub,clamp,2021_Dec_21_1521,exp,2021.2.3,59.54401167511826,
left,stop,1,0,1,0,2,0,12,2,471.77940797805786,None,1,0.12949585914611816,471.77940797805786,None,472.0152189731598,None,473.0150911808014,473.3678071498871,473.0150911808014,473.3678071498871,472.0152189731598,None,472.0152189731598,None,472.0152189731598,None,100,50,0,True,395.4050540924072,485.4104518890381,left,474.7851531505585,None,pp_06,icub,clamp,2021_Dec_21_1521,exp,2021.2.3,59.54401167511826,
left,stop,1,0,1,0,2,1,13,2,475.2883610725403,None,1,0.3880271911621094,475.2883610725403,None,475.7668881416321,None,476.78573513031006,477.1396920681,476.78573513031006,477.1396920681,475.7668881416321,None,475.7668881416321,None,475.7668881416321,None,50,50,1,True,658.7834358215332,-1.0,-1,481.3256061077118,None,pp_06,icub,clamp,2021_Dec_21_1521,exp,2021.2.3,59.54401167511826,
left,go,1,0,1,0,2,2,14,1,481.81892800331116,None,1,0.5415840148925781,481.81892800331116,None,482.4914901256561,None,483.4681611061096,483.819051027298,483.4681611061096,483.819051027298,482.4914901256561,None,482.4914901256561,None,482.4914901256561,None,-1,-1,1,True,316.9405460357666,497.47729301452637,left,485.208368062973,None,pp_06,icub,clamp,2021_Dec_21_1521,exp,2021.2.3,59.54401167511826,
right,go,1,0,1,0,2,3,15,3,485.73140811920166,None,1,0.05742907524108887,485.73140811920166,None,485.8964569568634,None,486.9292240142822,487.2744770050049,486.9292240142822,487.2744770050049,485.8964569568634,None,485.8964569568634,None,485.8964569568634,None,-1,-1,1,True,380.19847869873047,451.77626609802246,right,488.63057112693787,None,pp_06,icub,clamp,2021_Dec_21_1521,exp,2021.2.3,59.54401167511826,
left,go,1,0,1,0,2,4,16,1,489.13487100601196,None,1,0.07688093185424805,489.13487100601196,None,489.30728912353516,None,490.3120300769806,490.66360807418823,490.3120300769806,490.66360807418823,489.30728912353516,None,489.30728912353516,None,489.30728912353516,None,-1,-1,1,True,415.24267196655273,454.1313648223877,left,492.0582981109619,None,pp_06,icub,clamp,2021_Dec_21_1521,exp,2021.2.3,59.54401167511826,
left,go,1,0,1,0,2,5,17,0,492.5717890262604,None,1,0.17714810371398926,492.5717890262604,None,492.8654820919037,None,493.89567518234253,494.2426669597626,493.89567518234253,494.2426669597626,492.8654820919037,None,492.8654820919037,None,492.8654820919037,None,-1,-1,1,True,381.8860054016113,431.6675662994385,left,495.5793240070343,None,pp_06,icub,clamp,2021_Dec_21_1521,exp,2021.2.3,59.54401167511826,
right,go,1,0,1,0,3,0,18,3,496.09221506118774,None,1,0.08786821365356445,496.09221506118774,None,496.2657210826874,None,497.28341698646545,497.6397910118103,497.28341698646545,497.6397910118103,496.2657210826874,None,496.2657210826874,None,496.2657210826874,None,-1,-1,1,True,400.4650115966797,499.3147850036621,right,499.0699870586395,None,pp_06,icub,clamp,2021_Dec_21_1521,exp,2021.2.3,59.54401167511826,
right,go,1,0,1,0,3,1,19,3,499.5900311470032,None,1,0.08101916313171387,499.5900311470032,None,499.75400400161743,None,500.75403213500977,501.1071901321411,500.75403213500977,501.1071901321411,499.75400400161743,None,499.75400400161743,None,499.75400400161743,None,-1,-1,1,True,489.99500274658203,423.3412742614746,right,502.54482412338257,None,pp_06,icub,clamp,2021_Dec_21_1521,exp,2021.2.3,59.54401167511826,
left,go,1,0,1,0,3,2,20,0,503.0614399909973,None,1,0.09670186042785645,503.0614399909973,None,503.23388600349426,None,504.2418701648712,504.60077118873596,504.2418701648712,504.60077118873596,503.23388600349426,None,503.23388600349426,None,503.23388600349426,None,-1,-1,1,True,377.0458698272705,435.6265068054199,left,505.9418611526489,None,pp_06,icub,clamp,2021_Dec_21_1521,exp,2021.2.3,59.54401167511826,
left,go,1,0,1,0,3,3,21,1,506.45081901550293,None,1,0.10503983497619629,506.45081901550293,None,506.68340706825256,None,507.70788502693176,508.0655770301819,507.70788502693176,508.0655770301819,506.68340706825256,None,506.68340706825256,None,506.68340706825256,None,-1,-1,1,True,382.9822540283203,357.13791847229004,left,509.3230049610138,None,pp_06,icub,clamp,2021_Dec_21_1521,exp,2021.2.3,59.54401167511826,
left,go,1,0,1,0,3,4,22,1,509.83267998695374,None,1,0.15201902389526367,509.83267998695374,None,510.0652310848236,None,511.08665013313293,511.40944504737854,511.08665013313293,511.40944504737854,510.0652310848236,None,510.0652310848236,None,510.0652310848236,None,-1,-1,1,True,339.9336338043213,431.0722351074219,left,512.7452170848846,None,pp_06,icub,clamp,2021_Dec_21_1521,exp,2021.2.3,59.54401167511826,
left,go,1,0,1,0,3,5,23,0,513.2480630874634,None,1,0.1429460048675537,513.2480630874634,None,513.4817020893097,None,514.4848630428314,514.8322429656982,514.4848630428314,514.8322429656982,513.4817020893097,None,513.4817020893097,None,513.4817020893097,None,-1,-1,1,True,421.76127433776855,444.9279308319092,left,516.2546291351318,None,pp_06,icub,clamp,2021_Dec_21_1521,exp,2021.2.3,59.54401167511826,
right,go,1,0,1,0,4,0,24,3,516.7662131786346,None,1,0.07652688026428223,516.7662131786346,None,516.9382121562958,None,517.9397351741791,518.3020930290222,517.9397351741791,518.3020930290222,516.9382121562958,None,516.9382121562958,None,516.9382121562958,None,-1,-1,1,True,441.39933586120605,426.93161964416504,right,519.6993319988251,None,pp_06,icub,clamp,2021_Dec_21_1521,exp,2021.2.3,59.54401167511826,
left,stop,1,0,1,0,4,1,25,2,520.2092051506042,None,1,0.08966398239135742,520.2092051506042,None,520.3795530796051,None,521.390319108963,521.7356331348419,521.390319108963,521.7356331348419,520.3795530796051,None,520.3795530796051,None,520.3795530796051,None,100,50,0,True,347.92542457580566,360.8255386352539,left,522.9751839637756,None,pp_06,icub,clamp,2021_Dec_21_1521,exp,2021.2.3,59.54401167511826,
left,stop,1,0,1,0,4,2,26,2,523.4931981563568,None,1,0.2944159507751465,523.4931981563568,None,523.9112830162048,None,524.941004037857,525.2911531925201,524.941004037857,525.2911531925201,523.9112830162048,None,523.9112830162048,None,523.9112830162048,None,50,50,1,True,392.5480842590332,-1.0,-1,529.2128441333771,None,pp_06,icub,clamp,2021_Dec_21_1521,exp,2021.2.3,59.54401167511826,
left,stop,1,0,1,0,4,3,27,2,529.7058789730072,None,1,0.8603618144989014,529.7058789730072,None,530.6879639625549,None,531.6717810630798,532.0138139724731,531.6717810630798,532.0138139724731,530.6879639625549,None,530.6879639625549,None,530.6879639625549,None,100,50,0,True,290.7686233520508,431.74147605895996,left,533.2983071804047,None,pp_06,icub,clamp,2021_Dec_21_1521,exp,2021.2.3,59.54401167511826,
left,stop,1,0,1,0,4,4,28,2,533.7942061424255,None,1,0.670536994934082,533.7942061424255,None,534.5829281806946,None,535.5801329612732,535.9409220218658,535.5801329612732,535.9409220218658,534.5829281806946,None,534.5829281806946,None,534.5829281806946,None,50,50,1,True,352.88143157958984,-1.0,-1,539.8507030010223,None,pp_06,icub,clamp,2021_Dec_21_1521,exp,2021.2.3,59.54401167511826,
left,stop,1,0,1,0,4,5,29,2,540.3452000617981,None,1,0.6971380710601807,540.3452000617981,None,541.1428050994873,None,542.1284971237183,542.460695028305,542.1284971237183,542.460695028305,541.1428050994873,None,541.1428050994873,None,541.1428050994873,None,100,50,1,True,279.1776657104492,-1.0,-1,546.3030321598053,None,pp_06,icub,clamp,2021_Dec_21_1521,exp,2021.2.3,59.54401167511826,
left,go,1,0,1,0,5,0,30,0,546.8347911834717,None,1,0.4353909492492676,546.8347911834717,None,547.3879940509796,None,548.3595590591431,548.7009170055389,548.3595590591431,548.7009170055389,547.3879940509796,None,547.3879940509796,None,547.3879940509796,None,-1,-1,1,True,284.6696376800537,459.25068855285645,left,550.0004451274872,None,pp_06,icub,clamp,2021_Dec_21_1521,exp,2021.2.3,59.54401167511826,
left,stop,1,0,1,0,5,1,31,2,550.4999749660492,None,1,0.20184111595153809,550.4999749660492,None,550.7968351840973,None,551.7996511459351,552.1582419872284,551.7996511459351,552.1582419872284,550.7968351840973,None,550.7968351840973,None,550.7968351840973,None,150,50,1,True,1272.533893585205,-1.0,-1,556.9551889896393,None,pp_06,icub,clamp,2021_Dec_21_1521,exp,2021.2.3,59.54401167511826,
right,go,1,0,1,0,5,2,32,4,557.4862749576569,None,1,0.504910945892334,557.4862749576569,None,558.0995199680328,None,559.082267999649,559.4323680400848,559.082267999649,559.4323680400848,558.0995199680328,None,558.0995199680328,None,558.0995199680328,None,-1,-1,1,True,278.3687114715576,444.41890716552734,right,560.6853539943695,None,pp_06,icub,clamp,2021_Dec_21_1521,exp,2021.2.3,59.54401167511826,
right,stop,1,0,1,0,5,3,33,5,561.2186939716339,None,1,0.09695696830749512,561.2186939716339,None,561.3908910751343,None,562.4100921154022,562.7532410621643,562.4100921154022,562.7532410621643,561.3908910751343,None,561.3908910751343,None,561.3908910751343,None,200,50,1,True,371.69337272644043,-1.0,-1,566.643609046936,None,pp_06,icub,clamp,2021_Dec_21_1521,exp,2021.2.3,59.54401167511826,
right,stop,1,0,1,0,5,4,34,5,567.1519360542297,None,1,0.6531829833984375,567.1519360542297,None,567.8871600627899,None,568.896332025528,569.2662580013275,568.896332025528,569.2662580013275,567.8871600627899,None,567.8871600627899,None,567.8871600627899,None,200,100,1,True,330.1856517791748,-1.0,-1,573.0854489803314,None,pp_06,icub,clamp,2021_Dec_21_1521,exp,2021.2.3,59.54401167511826,
left,stop,1,0,1,0,5,5,35,2,573.617035150528,None,1,1.3232450485229492,573.617035150528,None,575.0358850955963,None,576.0201110839844,576.3750431537628,576.0201110839844,576.3750431537628,575.0358850955963,None,575.0358850955963,None,575.0358850955963,None,200,150,0,True,515.6726837158203,481.7373752593994,left,577.9093520641327,None,pp_06,icub,clamp,2021_Dec_21_1521,exp,2021.2.3,59.54401167511826,
right,stop,1,0,1,0,6,0,36,5,578.4132561683655,None,1,0.6222209930419922,578.4132561683655,None,579.1403701305389,None,580.1550960540771,580.505781173706,580.1550960540771,580.505781173706,579.1403701305389,None,579.1403701305389,None,579.1403701305389,None,150,150,1,True,413.62547874450684,-1.0,-1,584.4517221450806,None,pp_06,icub,clamp,2021_Dec_21_1521,exp,2021.2.3,59.54401167511826,
right,go,1,0,1,0,6,1,37,3,584.9447519779205,None,1,0.921414852142334,584.9447519779205,None,585.9900569915771,None,586.9665441513062,587.3050260543823,586.9665441513062,587.3050260543823,585.9900569915771,None,585.9900569915771,None,585.9900569915771,None,-1,-1,1,True,457.02219009399414,452.8772830963135,right,588.7874920368195,None,pp_06,icub,clamp,2021_Dec_21_1521,exp,2021.2.3,59.54401167511826,
right,go,1,0,1,0,6,2,38,4,589.3048100471497,None,1,0.05634593963623047,589.3048100471497,None,589.4687731266022,None,590.477324962616,590.8028030395508,590.477324962616,590.8028030395508,589.4687731266022,None,589.4687731266022,None,589.4687731266022,None,-1,-1,1,True,416.154146194458,468.2793617248535,right,592.2550091743469,None,pp_06,icub,clamp,2021_Dec_21_1521,exp,2021.2.3,59.54401167511826,
right,stop,1,0,1,0,6,3,39,5,592.7628650665283,None,1,0.06048917770385742,592.7628650665283,None,592.9335470199585,None,593.9494371414185,594.2891011238098,593.9494371414185,594.2891011238098,592.9335470199585,None,592.9335470199585,None,592.9335470199585,None,150,200,1,True,408.9961051940918,-1.0,-1,598.2453801631927,None,pp_06,icub,clamp,2021_Dec_21_1521,exp,2021.2.3,59.54401167511826,
left,go,1,0,1,0,6,4,40,1,598.7755560874939,None,1,0.6375179290771484,598.7755560874939,None,599.5113770961761,None,600.4909839630127,600.8456690311432,600.4909839630127,600.8456690311432,599.5113770961761,None,599.5113770961761,None,599.5113770961761,None,-1,-1,1,True,390.58423042297363,418.63369941711426,left,602.1891541481018,None,pp_06,icub,clamp,2021_Dec_21_1521,exp,2021.2.3,59.54401167511826,
right,go,1,0,1,0,6,5,41,3,602.7025151252747,None,1,0.1569969654083252,602.7025151252747,None,602.9350709915161,None,603.9710471630096,604.314610004425,603.9710471630096,604.314610004425,602.9350709915161,None,602.9350709915161,None,602.9350709915161,None,-1,-1,1,True,552.908182144165,418.3340072631836,right,605.8037831783295,None,pp_06,icub,clamp,2021_Dec_21_1521,exp,2021.2.3,59.54401167511826,
right,go,1,0,1,0,7,0,42,3,606.3103711605072,None,1,0.04012489318847656,606.3103711605072,None,606.4787511825562,None,607.478837966919,607.8297441005707,607.478837966919,607.8297441005707,606.4787511825562,None,606.4787511825562,None,606.4787511825562,None,-1,-1,1,True,319.2133903503418,407.8400135040283,right,609.0840411186218,None,pp_06,icub,clamp,2021_Dec_21_1521,exp,2021.2.3,59.54401167511826,
right,stop,1,0,1,0,7,1,43,5,609.601900100708,None,1,1.9509899616241455,609.601900100708,None,611.6860740184784,None,612.6652309894562,613.0202221870422,612.6652309894562,613.0202221870422,611.6860740184784,None,611.6860740184784,None,611.6860740184784,None,150,250,0,True,311.9497299194336,459.5766067504883,right,614.3297801017761,None,pp_06,icub,clamp,2021_Dec_21_1521,exp,2021.2.3,59.54401167511826,
left,stop,1,0,1,0,7,2,44,2,614.8305339813232,None,1,0.35629987716674805,614.8305339813232,None,615.3097259998322,None,616.3231761455536,616.6942131519318,616.3231761455536,616.6942131519318,615.3097259998322,None,615.3097259998322,None,615.3097259998322,None,150,200,1,True,389.6329402923584,-1.0,-1,620.618772983551,None,pp_06,icub,clamp,2021_Dec_21_1521,exp,2021.2.3,59.54401167511826,
left,stop,1,0,1,0,7,3,45,2,621.1135201454163,None,1,0.3935661315917969,621.1135201454163,None,621.6019990444183,None,622.5848870277405,622.9328331947327,622.5848870277405,622.9328331947327,621.6019990444183,None,621.6019990444183,None,621.6019990444183,None,200,200,1,True,320.7967281341553,-1.0,-1,626.816025018692,None,pp_06,icub,clamp,2021_Dec_21_1521,exp,2021.2.3,59.54401167511826,
right,stop,1,0,1,0,7,4,46,5,627.3473341464996,None,1,0.83461594581604,627.3473341464996,None,628.2679891586304,None,629.2352211475372,629.5812740325928,629.2352211475372,629.5812740325928,628.2679891586304,None,628.2679891586304,None,628.2679891586304,None,250,200,1,True,256.0117244720459,-1.0,-1,633.4050691127777,None,pp_06,icub,clamp,2021_Dec_21_1521,exp,2021.2.3,59.54401167511826,
right,stop,1,0,1,0,7,5,47,5,633.9374871253967,None,1,0.7743690013885498,633.9374871253967,None,634.7967581748962,None,635.7753729820251,636.1291301250458,635.7753729820251,636.1291301250458,634.7967581748962,None,634.7967581748962,None,634.7967581748962,None,250,250,0,True,282.49645233154297,404.681921005249,right,637.3837900161743,None,pp_06,icub,clamp,2021_Dec_21_1521,exp,2021.2.3,59.54401167511826,
right,stop,1,0,1,0,8,0,48,5,637.8914260864258,None,1,0.36197614669799805,637.8914260864258,None,638.3728840351105,None,639.3799870014191,639.7357721328735,639.3799870014191,639.7357721328735,638.3728840351105,None,638.3728840351105,None,638.3728840351105,None,250,200,1,True,307.7127933502197,-1.0,-1,643.5646531581879,None,pp_06,icub,clamp,2021_Dec_21_1521,exp,2021.2.3,59.54401167511826,
right,go,1,0,1,0,8,1,49,4,644.0584390163422,None,1,0.670468807220459,644.0584390163422,None,644.8556640148163,None,645.8664400577545,646.2235200405121,645.8664400577545,646.2235200405121,644.8556640148163,None,644.8556640148163,None,644.8556640148163,None,-1,-1,1,True,255.5685043334961,450.47545433044434,right,647.4515609741211,None,pp_06,icub,clamp,2021_Dec_21_1521,exp,2021.2.3,59.54401167511826,
right,go,1,0,1,0,8,2,50,3,647.9720380306244,None,1,0.08028221130371094,647.9720380306244,None,648.1428771018982,None,649.174339056015,649.5270121097565,649.174339056015,649.5270121097565,648.1428771018982,None,648.1428771018982,None,648.1428771018982,None,-1,-1,1,True,291.4252281188965,440.0613307952881,right,650.7799611091614,None,pp_06,icub,clamp,2021_Dec_21_1521,exp,2021.2.3,59.54401167511826,
left,go,1,0,1,0,8,3,51,0,651.2792270183563,None,1,0.11109519004821777,651.2792270183563,None,651.5109331607819,None,652.5327780246735,652.9005210399628,652.5327780246735,652.9005210399628,651.5109331607819,None,651.5109331607819,None,651.5109331607819,None,-1,-1,1,True,309.6897602081299,423.37489128112793,left,654.1253559589386,None,pp_06,icub,clamp,2021_Dec_21_1521,exp,2021.2.3,59.54401167511826,
right,stop,1,0,1,0,8,4,52,5,654.6470539569855,None,1,0.13414216041564941,654.6470539569855,None,654.8817100524902,None,655.8842601776123,656.2441761493683,655.8842601776123,656.2441761493683,654.8817100524902,None,654.8817100524902,None,654.8817100524902,None,250,250,0,True,625.903844833374,419.9564456939697,right,657.8271181583405,None,pp_06,icub,clamp,2021_Dec_21_1521,exp,2021.2.3,59.54401167511826,
left,go,1,0,1,0,8,5,53,0,658.3442361354828,None,1,0.40911197662353516,658.3442361354828,None,658.8286390304565,None,659.8260881900787,660.1857051849365,659.8260881900787,660.1857051849365,658.8286390304565,None,658.8286390304565,None,658.8286390304565,None,-1,-1,1,True,410.1524353027344,451.2012004852295,left,661.5691530704498,None,pp_06,icub,clamp,2021_Dec_21_1521,exp,2021.2.3,59.54401167511826,
right,go,1,0,1,0,9,0,54,3,662.0772070884705,None,1,0.08751606941223145,662.0772070884705,None,662.2499589920044,None,663.2668700218201,663.6318380832672,663.2668700218201,663.6318380832672,662.2499589920044,None,662.2499589920044,None,662.2499589920044,None,-1,-1,1,True,389.51849937438965,529.7346115112305,right,665.038684129715,None,pp_06,icub,clamp,2021_Dec_21_1521,exp,2021.2.3,59.54401167511826,
left,go,1,0,1,0,9,1,55,1,665.5629441738129,None,1,0.21961307525634766,665.5629441738129,None,665.858108997345,None,666.8614599704742,667.2154490947723,666.8614599704742,667.2154490947723,665.858108997345,None,665.858108997345,None,665.858108997345,None,-1,-1,1,True,395.03931999206543,432.88493156433105,left,668.5586831569672,None,pp_06,icub,clamp,2021_Dec_21_1521,exp,2021.2.3,59.54401167511826,
right,go,1,0,1,0,9,2,56,4,669.0717461109161,None,1,0.13045501708984375,669.0717461109161,None,669.3057720661163,None,670.3278591632843,670.6807301044464,670.3278591632843,670.6807301044464,669.3057720661163,None,669.3057720661163,None,669.3057720661163,None,-1,-1,1,True,470.4937934875488,374.1331100463867,right,672.0386431217194,None,pp_06,icub,clamp,2021_Dec_21_1521,exp,2021.2.3,59.54401167511826,
left,stop,1,0,1,0,9,3,57,2,672.5529110431671,None,1,0.040464162826538086,672.5529110431671,None,672.721086025238,None,673.7369260787964,674.0950610637665,673.7369260787964,674.0950610637665,672.721086025238,None,672.721086025238,None,672.721086025238,None,250,200,1,True,247.8325366973877,-1.0,-1,677.8645520210266,None,pp_06,icub,clamp,2021_Dec_21_1521,exp,2021.2.3,59.54401167511826,
right,go,1,0,1,0,9,4,58,4,678.3962709903717,None,1,0.43248605728149414,678.3962709903717,None,678.9478771686554,None,679.9320621490479,680.2926750183105,679.9320621490479,680.2926750183105,678.9478771686554,None,678.9478771686554,None,678.9478771686554,None,-1,-1,1,True,271.71802520751953,465.3942584991455,right,681.5529370307922,None,pp_06,icub,clamp,2021_Dec_21_1521,exp,2021.2.3,59.54401167511826,
right,go,1,0,1,0,9,5,59,3,682.0702321529388,None,1,0.03229808807373047,682.0702321529388,None,682.1783101558685,None,683.1729090213776,683.5232970714569,683.1729090213776,683.5232970714569,682.1783101558685,None,682.1783101558685,None,682.1783101558685,None,-1,-1,1,True,374.0530014038086,539.1421318054199,right,684.9912719726562,None,pp_06,icub,clamp,2021_Dec_21_1521,exp,2021.2.3,59.54401167511826,
left,go,1,0,1,0,10,0,60,1,685.5127341747284,None,1,0.1415729522705078,685.5127341747284,None,685.7448091506958,None,686.7549750804901,687.1056170463562,686.7549750804901,687.1056170463562,685.7448091506958,None,685.7448091506958,None,685.7448091506958,None,-1,-1,1,True,264.67132568359375,381.8635940551758,left,688.284873008728,None,pp_06,icub,clamp,2021_Dec_21_1521,exp,2021.2.3,59.54401167511826,
right,go,1,0,1,0,10,1,61,3,688.7881281375885,None,1,0.11103606224060059,688.7881281375885,None,689.0236129760742,None,690.0308501720428,690.3840939998627,690.0308501720428,690.3840939998627,689.0236129760742,None,689.0236129760742,None,689.0236129760742,None,-1,-1,1,True,260.8990669250488,368.4251308441162,right,691.5432600975037,None,pp_06,icub,clamp,2021_Dec_21_1521,exp,2021.2.3,59.54401167511826,
right,go,1,0,1,0,10,2,62,4,692.0559520721436,None,1,0.135300874710083,692.0559520721436,None,692.2917590141296,None,693.2887151241302,693.6377210617065,693.2887151241302,693.6377210617065,692.2917590141296,None,692.2917590141296,None,692.2917590141296,None,-1,-1,1,True,338.47641944885254,421.8323230743408,right,694.9297060966492,None,pp_06,icub,clamp,2021_Dec_21_1521,exp,2021.2.3,59.54401167511826,
left,go,1,0,1,0,10,3,63,0,695.4300401210785,None,1,0.06886911392211914,695.4300401210785,None,695.5967330932617,None,696.5931150913239,696.9396500587463,696.5931150913239,696.9396500587463,695.5967330932617,None,695.5967330932617,None,695.5967330932617,None,-1,-1,1,True,224.77006912231445,577.4190425872803,left,698.3058590888977,None,pp_06,icub,clamp,2021_Dec_21_1521,exp,2021.2.3,59.54401167511826,
left,go,1,0,1,0,10,4,64,0,698.8205289840698,None,1,0.17159700393676758,698.8205289840698,None,699.1152541637421,None,700.107616186142,700.4587161540985,700.107616186142,700.4587161540985,699.1152541637421,None,699.1152541637421,None,699.1152541637421,None,-1,-1,1,True,344.745397567749,423.72822761535645,left,701.7568809986115,None,pp_06,icub,clamp,2021_Dec_21_1521,exp,2021.2.3,59.54401167511826,
left,go,1,0,1,0,10,5,65,0,702.2706069946289,None,1,0.08246707916259766,702.2706069946289,None,702.4439170360565,None,703.4419031143188,703.7870850563049,703.4419031143188,703.7870850563049,702.4439170360565,None,702.4439170360565,None,702.4439170360565,None,-1,-1,1,True,302.52575874328613,452.3489475250244,left,705.0966169834137,None,pp_06,icub,clamp,2021_Dec_21_1521,exp,2021.2.3,59.54401167511826,
right,stop,1,0,1,0,11,0,66,5,705.6120791435242,None,1,0.07717704772949219,705.6120791435242,None,705.7847921848297,None,706.7908589839935,707.139641046524,706.7908589839935,707.139641046524,705.7847921848297,None,705.7847921848297,None,705.7847921848297,None,300,200,0,True,204.38003540039062,391.1120891571045,right,708.2670531272888,None,pp_06,icub,clamp,2021_Dec_21_1521,exp,2021.2.3,59.54401167511826,
left,go,1,0,1,0,11,1,67,1,708.7757210731506,None,1,0.4516170024871826,708.7757210731506,None,709.3180711269379,None,710.3396511077881,710.6941940784454,710.3396511077881,710.6941940784454,709.3180711269379,None,709.3180711269379,None,709.3180711269379,None,-1,-1,1,True,291.22281074523926,472.7919101715088,left,711.9854760169983,None,pp_06,icub,clamp,2021_Dec_21_1521,exp,2021.2.3,59.54401167511826,
left,stop,1,0,1,0,11,2,68,2,712.4954769611359,None,1,0.06457185745239258,712.4954769611359,None,712.6651561260223,None,713.6567420959473,714.0106780529022,713.6567420959473,714.0106780529022,712.6651561260223,None,712.6651561260223,None,712.6651561260223,None,300,150,0,True,376.04808807373047,428.96080017089844,left,715.3840141296387,None,pp_06,icub,clamp,2021_Dec_21_1521,exp,2021.2.3,59.54401167511826,
left,go,1,0,1,0,11,3,69,1,715.8907630443573,None,1,0.16750884056091309,715.8907630443573,None,716.1815099716187,None,717.2005710601807,717.5587120056152,717.2005710601807,717.5587120056152,716.1815099716187,None,716.1815099716187,None,716.1815099716187,None,-1,-1,1,True,334.03992652893066,703.6290168762207,left,719.1320631504059,None,pp_06,icub,clamp,2021_Dec_21_1521,exp,2021.2.3,59.54401167511826,
left,go,1,0,1,0,11,4,70,1,719.6320550441742,None,1,0.1019599437713623,719.6320550441742,None,719.8618950843811,None,720.8809151649475,721.2323000431061,720.8809151649475,721.2323000431061,719.8618950843811,None,719.8618950843811,None,719.8618950843811,None,-1,-1,1,True,302.2589683532715,556.2984943389893,left,722.6074540615082,None,pp_06,icub,clamp,2021_Dec_21_1521,exp,2021.2.3,59.54401167511826,
right,go,1,0,1,0,11,5,71,4,723.1183381080627,None,1,0.11792111396789551,723.1183381080627,None,723.3494970798492,None,724.3674931526184,724.7205650806427,724.3674931526184,724.7205650806427,723.3494970798492,None,723.3494970798492,None,723.3494970798492,None,-1,-1,1,True,366.53709411621094,603.8558483123779,right,726.2214500904083,None,pp_06,icub,clamp,2021_Dec_21_1521,exp,2021.2.3,59.54401167511826,
left,go,1,0,1,0,12,0,72,1,726.7242059707642,None,1,0.09035205841064453,726.7242059707642,None,726.8950850963593,None,727.8902499675751,728.2485640048981,727.8902499675751,728.2485640048981,726.8950850963593,None,726.8950850963593,None,726.8950850963593,None,-1,-1,1,True,230.52382469177246,377.8798580169678,left,729.3864951133728,None,pp_06,icub,clamp,2021_Dec_21_1521,exp,2021.2.3,59.54401167511826,
right,go,1,0,1,0,12,1,73,3,729.8999359607697,None,1,0.05208897590637207,729.8999359607697,None,730.0715880393982,None,731.0695660114288,731.4171769618988,731.0695660114288,731.4171769618988,730.0715880393982,None,730.0715880393982,None,730.0715880393982,None,-1,-1,1,True,265.3625011444092,381.9589614868164,right,732.6098310947418,None,pp_06,icub,clamp,2021_Dec_21_1521,exp,2021.2.3,59.54401167511826,
left,go,1,0,1,0,12,2,74,1,733.1303551197052,None,1,0.023829936981201172,733.1303551197052,None,733.239669084549,None,734.2457780838013,734.6032431125641,734.2457780838013,734.6032431125641,733.239669084549,None,733.239669084549,None,733.239669084549,None,-1,-1,1,True,330.2631378173828,446.6562271118164,left,735.8918490409851,None,pp_06,icub,clamp,2021_Dec_21_1521,exp,2021.2.3,59.54401167511826,
right,stop,1,0,1,0,12,3,75,5,736.4258830547333,None,1,0.04103994369506836,736.4258830547333,None,736.5955209732056,None,737.6114859580994,737.9624140262604,737.6114859580994,737.9624140262604,736.5955209732056,None,736.5955209732056,None,736.5955209732056,None,250,150,1,True,305.53507804870605,-1.0,-1,741.7940940856934,None,pp_06,icub,clamp,2021_Dec_21_1521,exp,2021.2.3,59.54401167511826,
right,stop,1,0,1,0,12,4,76,5,742.3243541717529,None,1,0.42812490463256836,742.3243541717529,None,742.8747141361237,None,743.8487629890442,744.2185170650482,743.8487629890442,744.2185170650482,742.8747141361237,None,742.8747141361237,None,742.8747141361237,None,250,200,0,True,206.2675952911377,393.5227394104004,right,745.3576741218567,None,pp_06,icub,clamp,2021_Dec_21_1521,exp,2021.2.3,59.54401167511826,
right,go,1,0,1,0,12,5,77,3,745.8713450431824,None,1,0.3006620407104492,745.8713450431824,None,746.2919299602509,None,747.2915501594543,747.6366801261902,747.2915501594543,747.6366801261902,746.2919299602509,None,746.2919299602509,None,746.2919299602509,None,-1,-1,1,True,402.60767936706543,381.9899559020996,right,748.972048997879,None,pp_06,icub,clamp,2021_Dec_21_1521,exp,2021.2.3,59.54401167511826,
left,stop,2,0,2,0,0,0,0,2,773.6022160053253,None,1,6.901994943618774,773.6022160053253,None,780.6156041622162,None,781.6394200325012,781.9783570766449,781.6394200325012,781.9783570766449,780.6156041622162,None,780.6156041622162,None,780.6156041622162,None,250,150,0,True,616.88232421875,487.5292778015137,left,783.6206531524658,None,pp_06,icub,clamp,2021_Dec_21_1521,exp,2021.2.3,59.54401167511826,
left,stop,2,0,2,0,0,1,1,2,784.1414620876312,None,1,0.9403481483459473,784.1414620876312,None,785.1828730106354,None,786.1730589866638,786.5223150253296,786.1730589866638,786.5223150253296,785.1828730106354,None,785.1828730106354,None,785.1828730106354,None,200,150,1,True,457.1878910064697,-1.0,-1,790.5444691181183,None,pp_06,icub,clamp,2021_Dec_21_1521,exp,2021.2.3,59.54401167511826,
left,stop,2,0,2,0,0,2,2,2,791.0694501399994,None,1,0.49290013313293457,791.0694501399994,None,791.6818380355835,None,792.6676080226898,793.0178279876709,792.6676080226898,793.0178279876709,791.6818380355835,None,791.6818380355835,None,791.6818380355835,None,250,150,1,True,307.89732933044434,-1.0,-1,796.8597900867462,None,pp_06,icub,clamp,2021_Dec_21_1521,exp,2021.2.3,59.54401167511826,
left,stop,2,0,2,0,0,3,3,2,797.3913991451263,None,1,0.4649178981781006,797.3913991451263,None,797.9422731399536,None,798.9154241085052,799.2527070045471,798.9154241085052,799.2527070045471,797.9422731399536,None,797.9422731399536,None,797.9422731399536,None,300,150,0,True,331.4552307128906,423.03943634033203,left,800.5832831859589,None,pp_06,icub,clamp,2021_Dec_21_1521,exp,2021.2.3,59.54401167511826,
right,go,2,0,2,0,0,4,4,3,801.0964770317078,None,1,0.49225401878356934,801.0964770317078,None,801.6977801322937,None,802.7071900367737,803.0624370574951,802.7071900367737,803.0624370574951,801.6977801322937,None,801.6977801322937,None,801.6977801322937,None,-1,-1,1,True,343.3079719543457,409.34014320373535,right,804.3494870662689,None,pp_06,icub,clamp,2021_Dec_21_1521,exp,2021.2.3,59.54401167511826,
left,go,2,0,2,0,0,5,5,1,804.8546760082245,None,1,0.06754112243652344,804.8546760082245,None,805.0279769897461,None,806.0229380130768,806.3816201686859,806.0229380130768,806.3816201686859,805.0279769897461,None,805.0279769897461,None,805.0279769897461,None,-1,-1,1,True,666.5318012237549,416.08428955078125,left,808.0102031230927,None,pp_06,icub,clamp,2021_Dec_21_1521,exp,2021.2.3,59.54401167511826,
left,go,2,0,2,0,1,0,6,1,808.5455641746521,None,1,0.09348106384277344,808.5455641746521,None,808.7193369865417,None,809.7437360286713,810.0655710697174,809.7437360286713,810.0655710697174,808.7193369865417,None,808.7193369865417,None,808.7193369865417,None,-1,-1,1,True,362.25295066833496,397.72725105285645,left,811.3514440059662,None,pp_06,icub,clamp,2021_Dec_21_1521,exp,2021.2.3,59.54401167511826,
right,stop,2,0,2,0,1,1,7,5,811.8866281509399,None,1,0.05494117736816406,811.8866281509399,None,812.0560691356659,None,813.0707800388336,813.4264221191406,813.0707800388336,813.4264221191406,812.0560691356659,None,812.0560691356659,None,812.0560691356659,None,250,150,1,True,424.66068267822266,-1.0,-1,817.3751430511475,None,pp_06,icub,clamp,2021_Dec_21_1521,exp,2021.2.3,59.54401167511826,
right,stop,2,0,2,0,1,2,8,5,817.906408071518,None,1,0.6460080146789551,817.906408071518,None,818.6403369903564,None,819.6429221630096,820.0068621635437,819.6429221630096,820.0068621635437,818.6403369903564,None,818.6403369903564,None,818.6403369903564,None,250,200,1,True,243.058443069458,-1.0,-1,823.7754001617432,None,pp_06,icub,clamp,2021_Dec_21_1521,exp,2021.2.3,59.54401167511826,
left,stop,2,0,2,0,1,3,9,2,824.3067591190338,None,1,3.21448016166687,824.3067591190338,None,827.636636018753,None,828.6185801029205,828.9772100448608,828.6185801029205,828.9772100448608,827.636636018753,None,827.636636018753,None,827.636636018753,None,250,250,0,True,412.07313537597656,449.77712631225586,left,830.3766391277313,None,pp_06,icub,clamp,2021_Dec_21_1521,exp,2021.2.3,59.54401167511826,
left,go,2,0,2,0,1,4,10,0,830.8936641216278,None,1,0.3541388511657715,830.8936641216278,None,831.3717751502991,None,832.3813900947571,832.7256729602814,832.3813900947571,832.7256729602814,831.3717751502991,None,831.3717751502991,None,831.3717751502991,None,-1,-1,1,True,362.8678321838379,413.7227535247803,left,834.0374441146851,None,pp_06,icub,clamp,2021_Dec_21_1521,exp,2021.2.3,59.54401167511826,
left,stop,2,0,2,0,1,5,11,2,834.5578961372375,None,1,0.09092211723327637,834.5578961372375,None,834.723354101181,None,835.7479410171509,836.1000089645386,835.7479410171509,836.1000089645386,834.723354101181,None,834.723354101181,None,834.723354101181,None,200,250,1,True,296.47254943847656,-1.0,-1,839.907212972641,None,pp_06,icub,clamp,2021_Dec_21_1521,exp,2021.2.3,59.54401167511826,
right,stop,2,0,2,0,2,0,12,5,840.4394781589508,None,1,0.47871899604797363,840.4394781589508,None,841.0503211021423,None,842.0247900485992,842.3659770488739,842.0247900485992,842.3659770488739,841.0503211021423,None,841.0503211021423,None,841.0503211021423,None,250,250,0,True,259.0203285217285,405.7166576385498,right,843.6091380119324,None,pp_06,icub,clamp,2021_Dec_21_1521,exp,2021.2.3,59.54401167511826,
right,go,2,0,2,0,2,1,13,4,844.1366190910339,None,1,0.08608293533325195,844.1366190910339,None,844.3084261417389,None,845.3286709785461,845.6781079769135,845.3286709785461,845.6781079769135,844.3084261417389,None,844.3084261417389,None,844.3084261417389,None,-1,-1,1,True,288.5754108428955,414.0963554382324,right,846.9139089584351,None,pp_06,icub,clamp,2021_Dec_21_1521,exp,2021.2.3,59.54401167511826,
right,go,2,0,2,0,2,2,14,4,847.4172501564026,None,1,0.08535480499267578,847.4172501564026,None,847.5883650779724,None,848.5857779979706,848.9382691383362,848.5857779979706,848.9382691383362,847.5883650779724,None,847.5883650779724,None,847.5883650779724,None,-1,-1,1,True,361.64259910583496,408.83827209472656,right,850.2374260425568,None,pp_06,icub,clamp,2021_Dec_21_1521,exp,2021.2.3,59.54401167511826,
left,go,2,0,2,0,2,3,15,1,850.7529921531677,None,1,0.09872794151306152,850.7529921531677,None,850.9270050525665,None,851.9491851329803,852.2971611022949,851.9491851329803,852.2971611022949,850.9270050525665,None,850.9270050525665,None,850.9270050525665,None,-1,-1,1,True,378.30615043640137,415.3919219970703,left,853.6134150028229,None,pp_06,icub,clamp,2021_Dec_21_1521,exp,2021.2.3,59.54401167511826,
right,go,2,0,2,0,2,4,16,3,854.1234769821167,None,1,0.12615489959716797,854.1234769821167,None,854.359827041626,None,855.3724420070648,855.7268600463867,855.3724420070648,855.7268600463867,854.359827041626,None,854.359827041626,None,854.359827041626,None,-1,-1,1,True,232.96070098876953,380.49888610839844,right,856.8712019920349,None,pp_06,icub,clamp,2021_Dec_21_1521,exp,2021.2.3,59.54401167511826,
left,go,2,0,2,0,2,5,17,1,857.3924021720886,None,1,0.0699920654296875,857.3924021720886,None,857.5615110397339,None,858.592178106308,858.9525640010834,858.592178106308,858.9525640010834,857.5615110397339,None,857.5615110397339,None,857.5615110397339,None,-1,-1,1,True,373.4753131866455,414.2954349517822,left,860.2293441295624,None,pp_06,icub,clamp,2021_Dec_21_1521,exp,2021.2.3,59.54401167511826,
left,go,2,0,2,0,3,0,18,1,860.7445681095123,None,1,0.11766386032104492,860.7445681095123,None,860.9759330749512,None,861.9793519973755,862.3083250522614,861.9793519973755,862.3083250522614,860.9759330749512,None,860.9759330749512,None,860.9759330749512,None,-1,-1,1,True,298.13647270202637,488.19971084594727,left,863.6631751060486,None,pp_06,icub,clamp,2021_Dec_21_1521,exp,2021.2.3,59.54401167511826,
right,go,2,0,2,0,3,1,19,4,864.1730091571808,None,1,0.24959087371826172,864.1730091571808,None,864.5281121730804,None,865.5464639663696,865.9012231826782,865.5464639663696,865.9012231826782,864.5281121730804,None,864.5281121730804,None,864.5281121730804,None,-1,-1,1,True,434.8757266998291,354.56395149230957,right,867.2184669971466,None,pp_06,icub,clamp,2021_Dec_21_1521,exp,2021.2.3,59.54401167511826,
right,go,2,0,2,0,3,2,20,3,867.7350480556488,None,1,0.15759801864624023,867.7350480556488,None,867.9680111408234,None,868.9653129577637,869.3193800449371,868.9653129577637,869.3193800449371,867.9680111408234,None,867.9680111408234,None,867.9680111408234,None,-1,-1,1,True,398.03361892700195,323.6703872680664,right,870.5698189735413,None,pp_06,icub,clamp,2021_Dec_21_1521,exp,2021.2.3,59.54401167511826,
left,go,2,0,2,0,3,3,21,0,871.1012051105499,None,1,0.24452900886535645,871.1012051105499,None,871.4557731151581,None,872.4739761352539,872.8233110904694,872.4739761352539,872.8233110904694,871.4557731151581,None,871.4557731151581,None,871.4557731151581,None,-1,-1,1,True,421.7073917388916,363.3260726928711,left,874.1150240898132,None,pp_06,icub,clamp,2021_Dec_21_1521,exp,2021.2.3,59.54401167511826,
left,go,2,0,2,0,3,4,22,0,874.6350800991058,None,1,0.15866708755493164,874.6350800991058,None,874.8691229820251,None,875.8878881931305,876.2346091270447,875.8878881931305,876.2346091270447,874.8691229820251,None,874.8691229820251,None,874.8691229820251,None,-1,-1,1,True,255.35082817077637,434.3066215515137,left,877.453891992569,None,pp_06,icub,clamp,2021_Dec_21_1521,exp,2021.2.3,59.54401167511826,
left,stop,2,0,2,0,3,5,23,2,877.9658479690552,None,1,0.1728808879852295,877.9658479690552,None,878.2575511932373,None,879.2723350524902,879.6225790977478,879.2723350524902,879.6225790977478,878.2575511932373,None,878.2575511932373,None,878.2575511932373,None,250,200,0,True,348.3569622039795,415.53497314453125,left,880.9218699932098,None,pp_06,icub,clamp,2021_Dec_21_1521,exp,2021.2.3,59.54401167511826,
right,go,2,0,2,0,4,0,24,3,881.438098192215,None,1,0.37032198905944824,881.438098192215,None,881.9133961200714,None,882.9336960315704,883.2833240032196,882.9336960315704,883.2833240032196,881.9133961200714,None,881.9133961200714,None,881.9133961200714,None,-1,-1,1,True,344.0377712249756,475.7838249206543,right,884.6411831378937,None,pp_06,icub,clamp,2021_Dec_21_1521,exp,2021.2.3,59.54401167511826,
left,go,2,0,2,0,4,1,25,0,885.1591081619263,None,1,0.14271211624145508,885.1591081619263,None,885.3924651145935,None,886.4164650440216,886.7744581699371,886.4164650440216,886.7744581699371,885.3924651145935,None,885.3924651145935,None,885.3924651145935,None,-1,-1,1,True,382.89451599121094,424.8363971710205,left,888.0751521587372,None,pp_06,icub,clamp,2021_Dec_21_1521,exp,2021.2.3,59.54401167511826,
left,go,2,0,2,0,4,2,26,1,888.592236995697,None,1,0.23916983604431152,888.592236995697,None,888.951061964035,None,889.9606230258942,890.2909531593323,889.9606230258942,890.2909531593323,888.951061964035,None,888.951061964035,None,888.951061964035,None,-1,-1,1,True,336.2150192260742,406.4488410949707,left,891.5680451393127,None,pp_06,icub,clamp,2021_Dec_21_1521,exp,2021.2.3,59.54401167511826,
left,go,2,0,2,0,4,3,27,0,892.078066110611,None,1,0.16729092597961426,892.078066110611,None,892.3739311695099,None,893.3707520961761,893.7332201004028,893.3707520961761,893.7332201004028,892.3739311695099,None,892.3739311695099,None,892.3739311695099,None,-1,-1,1,True,387.6955509185791,416.2149429321289,left,895.0642690658569,None,pp_06,icub,clamp,2021_Dec_21_1521,exp,2021.2.3,59.54401167511826,
right,go,2,0,2,0,4,4,28,3,895.5791070461273,None,1,0.11430597305297852,895.5791070461273,None,895.8127121925354,None,896.8245770931244,897.1774780750275,896.8245770931244,897.1774780750275,895.8127121925354,None,895.8127121925354,None,895.8127121925354,None,-1,-1,1,True,361.2945079803467,383.3601474761963,right,898.4389061927795,None,pp_06,icub,clamp,2021_Dec_21_1521,exp,2021.2.3,59.54401167511826,
left,stop,2,0,2,0,4,5,29,2,898.9591829776764,None,1,0.12637090682983398,898.9591829776764,None,899.1921720504761,None,900.1983289718628,900.5238139629364,900.1983289718628,900.5238139629364,899.1921720504761,None,899.1921720504761,None,899.1921720504761,None,200,200,1,True,357.7260971069336,-1.0,-1,904.4359550476074,None,pp_06,icub,clamp,2021_Dec_21_1521,exp,2021.2.3,59.54401167511826,
left,go,2,0,2,0,5,0,30,0,904.9674401283264,None,1,1.7975959777832031,904.9674401283264,None,906.8782911300659,None,907.8497040271759,908.1908121109009,907.8497040271759,908.1908121109009,906.8782911300659,None,906.8782911300659,None,906.8782911300659,None,-1,-1,1,True,330.1277160644531,408.9477062225342,left,909.4970459938049,None,pp_06,icub,clamp,2021_Dec_21_1521,exp,2021.2.3,59.54401167511826,
right,stop,2,0,2,0,5,1,31,5,910.011146068573,None,1,0.13723015785217285,910.011146068573,None,910.2440521717072,None,911.2659640312195,911.6253960132599,911.2659640312195,911.6253960132599,910.2440521717072,None,910.2440521717072,None,910.2440521717072,None,250,200,0,True,312.44397163391113,355.50570487976074,right,912.8187351226807,None,pp_06,icub,clamp,2021_Dec_21_1521,exp,2021.2.3,59.54401167511826,
left,stop,2,0,2,0,5,2,32,2,913.343584060669,None,1,0.2228541374206543,913.343584060669,None,913.6417841911316,None,914.6471960544586,915.00151014328,914.6471960544586,915.00151014328,913.6417841911316,None,913.6417841911316,None,913.6417841911316,None,250,150,0,True,442.4312114715576,414.34168815612793,left,916.3697190284729,None,pp_06,icub,clamp,2021_Dec_21_1521,exp,2021.2.3,59.54401167511826,
left,go,2,0,2,0,5,3,33,1,916.8890640735626,None,1,0.6750850677490234,916.8890640735626,None,917.6749360561371,None,918.710291147232,919.05615401268,918.710291147232,919.05615401268,917.6749360561371,None,917.6749360561371,None,917.6749360561371,None,-1,-1,1,True,305.9971332550049,483.75964164733887,left,920.3786749839783,None,pp_06,icub,clamp,2021_Dec_21_1521,exp,2021.2.3,59.54401167511826,
right,go,2,0,2,0,5,4,34,4,920.8927090167999,None,1,0.09563803672790527,920.8927090167999,None,921.0637130737305,None,922.0772249698639,922.4274780750275,922.0772249698639,922.4274780750275,921.0637130737305,None,921.0637130737305,None,921.0637130737305,None,-1,-1,1,True,341.5052890777588,424.52406883239746,right,923.7139890193939,None,pp_06,icub,clamp,2021_Dec_21_1521,exp,2021.2.3,59.54401167511826,
right,go,2,0,2,0,5,5,35,4,924.21448802948,None,1,0.12676095962524414,924.21448802948,None,924.4478380680084,None,925.4747710227966,925.8377549648285,925.4747710227966,925.8377549648285,924.4478380680084,None,924.4478380680084,None,924.4478380680084,None,-1,-1,1,True,324.678897857666,357.3427200317383,right,927.0077331066132,None,pp_06,icub,clamp,2021_Dec_21_1521,exp,2021.2.3,59.54401167511826,
right,go,2,0,2,0,6,0,36,4,927.514683008194,None,1,0.1337568759918213,927.514683008194,None,927.7496540546417,None,928.7598111629486,929.1134991645813,928.7598111629486,929.1134991645813,927.7496540546417,None,927.7496540546417,None,927.7496540546417,None,-1,-1,1,True,226.29046440124512,473.91724586486816,right,930.3359429836273,None,pp_06,icub,clamp,2021_Dec_21_1521,exp,2021.2.3,59.54401167511826,
right,go,2,0,2,0,6,1,37,3,930.8422191143036,None,1,0.11383795738220215,930.8422191143036,None,931.0760340690613,None,932.1030139923096,932.4637060165405,932.1030139923096,932.4637060165405,931.0760340690613,None,931.0760340690613,None,931.0760340690613,None,-1,-1,1,True,259.8896026611328,450.38795471191406,right,933.6648499965668,None,pp_06,icub,clamp,2021_Dec_21_1521,exp,2021.2.3,59.54401167511826,
left,go,2,0,2,0,6,2,38,0,934.1786229610443,None,1,0.07886600494384766,934.1786229610443,None,934.3481130599976,None,935.3421711921692,935.6991250514984,935.3421711921692,935.6991250514984,934.3481130599976,None,934.3481130599976,None,934.3481130599976,None,-1,-1,1,True,283.1289768218994,444.29945945739746,left,936.9472630023956,None,pp_06,icub,clamp,2021_Dec_21_1521,exp,2021.2.3,59.54401167511826,
left,go,2,0,2,0,6,3,39,0,937.4614050388336,None,1,0.19738197326660156,937.4614050388336,None,937.7602250576019,None,938.7752451896667,939.1383390426636,938.7752451896667,939.1383390426636,937.7602250576019,None,937.7602250576019,None,937.7602250576019,None,-1,-1,1,True,132.55834579467773,507.60388374328613,left,940.3094160556793,None,pp_06,icub,clamp,2021_Dec_21_1521,exp,2021.2.3,59.54401167511826,
right,go,2,0,2,0,6,4,40,3,940.8265340328217,None,1,0.2640869617462158,940.8265340328217,None,941.1812081336975,None,942.2074241638184,942.5661091804504,942.2074241638184,942.5661091804504,941.1812081336975,None,941.1812081336975,None,941.1812081336975,None,-1,-1,1,True,340.60025215148926,422.20306396484375,right,943.8154091835022,None,pp_06,icub,clamp,2021_Dec_21_1521,exp,2021.2.3,59.54401167511826,
right,go,2,0,2,0,6,5,41,4,944.3269791603088,None,1,0.18723082542419434,944.3269791603088,None,944.6215131282806,None,945.6284229755402,945.9866421222687,945.6284229755402,945.9866421222687,944.6215131282806,None,944.6215131282806,None,944.6215131282806,None,-1,-1,1,True,369.68088150024414,362.51020431518555,right,947.2529239654541,None,pp_06,icub,clamp,2021_Dec_21_1521,exp,2021.2.3,59.54401167511826,
left,stop,2,0,2,0,7,0,42,2,947.771427154541,None,1,0.2900240421295166,947.771427154541,None,948.1845710277557,None,949.2101860046387,949.549134016037,949.2101860046387,949.549134016037,948.1845710277557,None,948.1845710277557,None,948.1845710277557,None,200,150,0,True,333.07838439941406,419.60954666137695,left,950.8137760162354,None,pp_06,icub,clamp,2021_Dec_21_1521,exp,2021.2.3,59.54401167511826,
left,go,2,0,2,0,7,1,43,0,951.3319761753082,None,1,0.29330897331237793,951.3319761753082,None,951.749626159668,None,952.7575290203094,953.1157159805298,952.7575290203094,953.1157159805298,951.749626159668,None,951.749626159668,None,951.749626159668,None,-1,-1,1,True,343.97339820861816,406.63981437683105,left,954.3933300971985,None,pp_06,icub,clamp,2021_Dec_21_1521,exp,2021.2.3,59.54401167511826,
left,go,2,0,2,0,7,2,44,1,954.8900630474091,None,1,0.2324199676513672,954.8900630474091,None,955.2460291385651,None,956.2746641635895,956.6345081329346,956.2746641635895,956.6345081329346,955.2460291385651,None,955.2460291385651,None,955.2460291385651,None,-1,-1,1,True,445.25861740112305,403.6431312561035,left,958.001806974411,None,pp_06,icub,clamp,2021_Dec_21_1521,exp,2021.2.3,59.54401167511826,
right,stop,2,0,2,0,7,3,45,5,958.520271062851,None,1,0.32208704948425293,958.520271062851,None,958.9377491474152,None,959.9578890800476,960.3142540454865,959.9578890800476,960.3142540454865,958.9377491474152,None,958.9377491474152,None,958.9377491474152,None,150,150,0,True,514.8458480834961,767.2138214111328,right,962.122073173523,None,pp_06,icub,clamp,2021_Dec_21_1521,exp,2021.2.3,59.54401167511826,
right,go,2,0,2,0,7,4,46,3,962.646476984024,None,1,1.3318068981170654,962.646476984024,None,964.0536160469055,None,965.0778861045837,965.4341580867767,965.0778861045837,965.4341580867767,964.0536160469055,None,964.0536160469055,None,964.0536160469055,None,-1,-1,1,True,442.2950744628906,433.3946704864502,right,966.8039650917053,None,pp_06,icub,clamp,2021_Dec_21_1521,exp,2021.2.3,59.54401167511826,
right,stop,2,0,2,0,7,5,47,5,967.3227071762085,None,1,0.2616410255432129,967.3227071762085,None,967.6800220012665,None,968.7007269859314,969.0517220497131,968.7007269859314,969.0517220497131,967.6800220012665,None,967.6800220012665,None,967.6800220012665,None,150,100,1,True,650.9532928466797,-1.0,-1,973.2370049953461,None,pp_06,icub,clamp,2021_Dec_21_1521,exp,2021.2.3,59.54401167511826,
right,go,2,0,2,0,8,0,48,4,973.7714929580688,None,1,0.9962339401245117,973.7714929580688,None,974.880578994751,None,975.8683800697327,976.202919960022,975.8683800697327,976.202919960022,974.880578994751,None,974.880578994751,None,974.880578994751,None,-1,-1,1,True,369.42005157470703,467.24462509155273,right,977.6057319641113,None,pp_06,icub,clamp,2021_Dec_21_1521,exp,2021.2.3,59.54401167511826,
right,go,2,0,2,0,8,1,49,4,978.1152191162109,None,1,0.15414094924926758,978.1152191162109,None,978.3499550819397,None,979.364804983139,979.7258319854736,979.364804983139,979.7258319854736,978.3499550819397,None,978.3499550819397,None,978.3499550819397,None,-1,-1,1,True,362.0295524597168,416.17465019226074,right,981.0269331932068,None,pp_06,icub,clamp,2021_Dec_21_1521,exp,2021.2.3,59.54401167511826,
right,stop,2,0,2,0,8,2,50,5,981.5293340682983,None,1,0.15408015251159668,981.5293340682983,None,981.7639231681824,None,982.7870621681213,983.1221451759338,982.7870621681213,983.1221451759338,981.7639231681824,None,981.7639231681824,None,981.7639231681824,None,150,150,1,True,293.34139823913574,-1.0,-1,986.9481799602509,None,pp_06,icub,clamp,2021_Dec_21_1521,exp,2021.2.3,59.54401167511826,
left,go,2,0,2,0,8,3,51,0,987.4796950817108,None,1,0.517204999923706,987.4796950817108,None,988.0914740562439,None,989.0655851364136,989.4174661636353,989.0655851364136,989.4174661636353,988.0914740562439,None,988.0914740562439,None,988.0914740562439,None,-1,-1,1,True,379.6648979187012,431.9589138031006,left,990.7913181781769,None,pp_06,icub,clamp,2021_Dec_21_1521,exp,2021.2.3,59.54401167511826,
left,go,2,0,2,0,8,4,52,0,991.2946081161499,None,1,0.11547613143920898,991.2946081161499,None,991.522588968277,None,992.5277030467987,992.8781960010529,992.5277030467987,992.8781960010529,991.522588968277,None,991.522588968277,None,991.522588968277,None,-1,-1,1,True,375.61511993408203,367.4914836883545,left,994.1552290916443,None,pp_06,icub,clamp,2021_Dec_21_1521,exp,2021.2.3,59.54401167511826,
left,go,2,0,2,0,8,5,53,0,994.6618030071259,None,1,0.12429404258728027,994.6618030071259,None,994.8930711746216,None,995.9077401161194,996.2634990215302,995.9077401161194,996.2634990215302,994.8930711746216,None,994.8930711746216,None,994.8930711746216,None,-1,-1,1,True,361.74893379211426,394.4993019104004,left,997.5526030063629,None,pp_06,icub,clamp,2021_Dec_21_1521,exp,2021.2.3,59.54401167511826,
right,go,2,0,2,0,9,0,54,3,998.0554859638214,None,1,0.13683819770812988,998.0554859638214,None,998.282742023468,None,999.3049440383911,999.6573710441589,999.3049440383911,999.6573710441589,998.282742023468,None,998.282742023468,None,998.282742023468,None,-1,-1,1,True,495.0413703918457,435.12845039367676,right,1001.1208400726318,None,pp_06,icub,clamp,2021_Dec_21_1521,exp,2021.2.3,59.54401167511826,
right,stop,2,0,2,0,9,1,55,5,1001.6316001415253,None,1,0.09553194046020508,1001.6316001415253,None,1001.8024530410767,None,1002.8203721046448,1003.1860001087189,1002.8203721046448,1003.1860001087189,1001.8024530410767,None,1001.8024530410767,None,1001.8024530410767,None,150,200,0,True,439.76402282714844,384.63401794433594,right,1004.5066180229187,None,pp_06,icub,clamp,2021_Dec_21_1521,exp,2021.2.3,59.54401167511826,
right,go,2,0,2,0,9,2,56,4,1005.0079081058502,None,1,0.19621801376342773,1005.0079081058502,None,1005.3052430152893,None,1006.3284161090851,1006.6803500652313,1006.3284161090851,1006.6803500652313,1005.3052430152893,None,1005.3052430152893,None,1005.3052430152893,None,-1,-1,1,True,323.82678985595703,424.30973052978516,right,1007.9624080657959,None,pp_06,icub,clamp,2021_Dec_21_1521,exp,2021.2.3,59.54401167511826,
right,go,2,0,2,0,9,3,57,4,1008.4781651496887,None,1,0.1857900619506836,1008.4781651496887,None,1008.774551153183,None,1009.7929000854492,1010.1508090496063,1009.7929000854492,1010.1508090496063,1008.774551153183,None,1008.774551153183,None,1008.774551153183,None,-1,-1,1,True,318.5868263244629,423.0790138244629,right,1011.3967621326447,None,pp_06,icub,clamp,2021_Dec_21_1521,exp,2021.2.3,59.54401167511826,
left,stop,2,0,2,0,9,4,58,2,1011.9145331382751,None,1,0.09738302230834961,1011.9145331382751,None,1012.1450471878052,None,1013.1420900821686,1013.4988191127777,1013.1420900821686,1013.4988191127777,1012.1450471878052,None,1012.1450471878052,None,1012.1450471878052,None,150,150,1,True,265.29884338378906,-1.0,-1,1017.3164319992065,None,pp_06,icub,clamp,2021_Dec_21_1521,exp,2021.2.3,59.54401167511826,
left,go,2,0,2,0,9,5,59,1,1017.8474040031433,None,1,0.38925790786743164,1017.8474040031433,None,1018.335461139679,None,1019.318864107132,1019.6667470932007,1019.318864107132,1019.6667470932007,1018.335461139679,None,1018.335461139679,None,1018.335461139679,None,-1,-1,1,True,343.14632415771484,416.20826721191406,left,1020.9919500350952,None,pp_06,icub,clamp,2021_Dec_21_1521,exp,2021.2.3,59.54401167511826,
right,go,2,0,2,0,10,0,60,4,1021.5087761878967,None,1,0.13118886947631836,1021.5087761878967,None,1021.7460691928864,None,1022.7674310207367,1023.1348299980164,1022.7674310207367,1023.1348299980164,1021.7460691928864,None,1021.7460691928864,None,1021.7460691928864,None,-1,-1,1,True,387.911319732666,391.75915718078613,right,1024.4017989635468,None,pp_06,icub,clamp,2021_Dec_21_1521,exp,2021.2.3,59.54401167511826,
right,stop,2,0,2,0,10,1,61,5,1024.9168541431427,None,1,0.08140683174133301,1024.9168541431427,None,1025.0890650749207,None,1026.0960640907288,1026.4546711444855,1026.0960640907288,1026.4546711444855,1025.0890650749207,None,1025.0890650749207,None,1025.0890650749207,None,200,150,1,True,458.7552547454834,-1.0,-1,1030.438148021698,None,pp_06,icub,clamp,2021_Dec_21_1521,exp,2021.2.3,59.54401167511826,
right,go,2,0,2,0,10,2,62,3,1030.9706909656525,None,1,0.427947998046875,1030.9706909656525,None,1031.5220181941986,None,1032.5020220279694,1032.8423581123352,1032.5020220279694,1032.8423581123352,1031.5220181941986,None,1031.5220181941986,None,1031.5220181941986,None,-1,-1,1,True,347.7494716644287,426.61476135253906,right,1034.1889090538025,None,pp_06,icub,clamp,2021_Dec_21_1521,exp,2021.2.3,59.54401167511826,
left,stop,2,0,2,0,10,3,63,2,1034.7211129665375,None,1,0.07709693908691406,1034.7211129665375,None,1034.893800020218,None,1035.8914530277252,1036.243791103363,1035.8914530277252,1036.243791103363,1034.893800020218,None,1034.893800020218,None,1034.893800020218,None,200,200,1,True,416.02158546447754,-1.0,-1,1040.1893320083618,None,pp_06,icub,clamp,2021_Dec_21_1521,exp,2021.2.3,59.54401167511826,
right,go,2,0,2,0,10,4,64,4,1040.7196810245514,None,1,0.4559938907623291,1040.7196810245514,None,1041.2708430290222,None,1042.253807067871,1042.602625131607,1042.253807067871,1042.602625131607,1041.2708430290222,None,1041.2708430290222,None,1041.2708430290222,None,-1,-1,1,True,321.5179443359375,508.3467960357666,right,1043.9634220600128,None,pp_06,icub,clamp,2021_Dec_21_1521,exp,2021.2.3,59.54401167511826,
right,go,2,0,2,0,10,5,65,3,1044.4839050769806,None,1,0.047293901443481445,1044.4839050769806,None,1044.6554651260376,None,1045.6569609642029,1046.0148270130157,1045.6569609642029,1046.0148270130157,1044.6554651260376,None,1044.6554651260376,None,1044.6554651260376,None,-1,-1,1,True,360.8119487762451,443.65549087524414,right,1047.3398070335388,None,pp_06,icub,clamp,2021_Dec_21_1521,exp,2021.2.3,59.54401167511826,
right,stop,2,0,2,0,11,0,66,5,1047.8406200408936,None,1,0.0804290771484375,1047.8406200408936,None,1048.0115439891815,None,1049.019010066986,1049.3738641738892,1049.019010066986,1049.3738641738892,1048.0115439891815,None,1048.0115439891815,None,1048.0115439891815,None,250,200,1,True,323.9257335662842,-1.0,-1,1053.208163022995,None,pp_06,icub,clamp,2021_Dec_21_1521,exp,2021.2.3,59.54401167511826,
right,go,2,0,2,0,11,1,67,3,1053.7401940822601,None,1,0.7044410705566406,1053.7401940822601,None,1054.5389239788055,None,1055.540556192398,1055.897833108902,1055.540556192398,1055.897833108902,1054.5389239788055,None,1054.5389239788055,None,1054.5389239788055,None,-1,-1,1,True,342.9751396179199,395.0085639953613,right,1057.1494929790497,None,pp_06,icub,clamp,2021_Dec_21_1521,exp,2021.2.3,59.54401167511826,
left,go,2,0,2,0,11,2,68,1,1057.6664459705353,None,1,0.0833439826965332,1057.6664459705353,None,1057.8369340896606,None,1058.861780166626,1059.2240180969238,1058.861780166626,1059.2240180969238,1057.8369340896606,None,1057.8369340896606,None,1057.8369340896606,None,-1,-1,1,True,350.4810333251953,420.71080207824707,left,1060.478443145752,None,pp_06,icub,clamp,2021_Dec_21_1521,exp,2021.2.3,59.54401167511826,
left,go,2,0,2,0,11,3,69,1,1060.987046957016,None,1,0.09685587882995605,1060.987046957016,None,1061.1594519615173,None,1062.1830949783325,1062.533586025238,1062.1830949783325,1062.533586025238,1061.1594519615173,None,1061.1594519615173,None,1061.1594519615173,None,-1,-1,1,True,316.3938522338867,394.2759037017822,left,1063.772539138794,None,pp_06,icub,clamp,2021_Dec_21_1521,exp,2021.2.3,59.54401167511826,
left,go,2,0,2,0,11,4,70,1,1064.2965030670166,None,1,0.10561108589172363,1064.2965030670166,None,1064.5269260406494,None,1065.554769039154,1065.8918330669403,1065.554769039154,1065.8918330669403,1064.5269260406494,None,1064.5269260406494,None,1064.5269260406494,None,-1,-1,1,True,395.5516815185547,495.8372116088867,left,1067.292330980301,None,pp_06,icub,clamp,2021_Dec_21_1521,exp,2021.2.3,59.54401167511826,
right,stop,2,0,2,0,11,5,71,5,1067.80606007576,None,1,0.21093511581420898,1067.80606007576,None,1068.1026530265808,None,1069.1176400184631,1069.4784719944,1069.1176400184631,1069.4784719944,1068.1026530265808,None,1068.1026530265808,None,1068.1026530265808,None,250,250,0,True,411.09418869018555,416.0928726196289,right,1070.8302910327911,None,pp_06,icub,clamp,2021_Dec_21_1521,exp,2021.2.3,59.54401167511826,
right,stop,2,0,2,0,12,0,72,5,1071.33434009552,None,1,0.6307010650634766,1071.33434009552,None,1072.0662331581116,None,1073.0911021232605,1073.453603029251,1073.0911021232605,1073.453603029251,1072.0662331581116,None,1072.0662331581116,None,1072.0662331581116,None,250,200,1,True,299.38411712646484,-1.0,-1,1077.2833280563354,None,pp_06,icub,clamp,2021_Dec_21_1521,exp,2021.2.3,59.54401167511826,
left,go,2,0,2,0,12,1,73,1,1077.777400970459,None,1,0.49996399879455566,1077.777400970459,None,1078.3890051841736,None,1079.361680984497,1079.7197661399841,1079.361680984497,1079.7197661399841,1078.3890051841736,None,1078.3890051841736,None,1078.3890051841736,None,-1,-1,1,True,340.56568145751953,416.1376953125,left,1081.049674987793,None,pp_06,icub,clamp,2021_Dec_21_1521,exp,2021.2.3,59.54401167511826,
left,go,2,0,2,0,12,2,74,0,1081.5541670322418,None,1,0.22355008125305176,1081.5541670322418,None,1081.8482780456543,None,1082.8644661903381,1083.1893181800842,1082.8644661903381,1083.1893181800842,1081.8482780456543,None,1081.8482780456543,None,1081.8482780456543,None,-1,-1,1,True,385.2837085723877,429.81767654418945,left,1084.5416941642761,None,pp_06,icub,clamp,2021_Dec_21_1521,exp,2021.2.3,59.54401167511826,
left,stop,2,0,2,0,12,3,75,2,1085.0599641799927,None,1,0.3420732021331787,1085.0599641799927,None,1085.4778101444244,None,1086.4744820594788,1086.7956149578094,1086.4744820594788,1086.7956149578094,1085.4778101444244,None,1085.4778101444244,None,1085.4778101444244,None,250,250,0,True,369.74310874938965,505.02681732177734,left,1088.2370791435242,None,pp_06,icub,clamp,2021_Dec_21_1521,exp,2021.2.3,59.54401167511826,
right,stop,2,0,2,0,12,4,76,5,1088.7258970737457,None,1,0.2706780433654785,1088.7258970737457,None,1089.1238400936127,None,1090.1487851142883,1090.4818861484528,1090.1487851142883,1090.4818861484528,1089.1238400936127,None,1089.1238400936127,None,1089.1238400936127,None,200,250,1,True,388.55862617492676,-1.0,-1,1094.407016992569,None,pp_06,icub,clamp,2021_Dec_21_1521,exp,2021.2.3,59.54401167511826,
right,go,2,0,2,0,12,5,77,3,1094.901839017868,None,1,0.7104640007019043,1094.901839017868,None,1095.6994950771332,None,1096.6825530529022,1097.043109178543,1096.6825530529022,1097.043109178543,1095.6994950771332,None,1095.6994950771332,None,1095.6994950771332,None,-1,-1,1,True,444.6120262145996,413.2568836212158,right,1098.433039188385,None,pp_06,icub,clamp,2021_Dec_21_1521,exp,2021.2.3,59.54401167511826,
right,go,3,0,3,0,0,0,0,3,1129.932561159134,None,1,10.439938068389893,1129.932561159134,None,1140.4879741668701,None,1141.4910221099854,1141.8391270637512,1141.4910221099854,1141.8391270637512,1140.4879741668701,None,1140.4879741668701,None,1140.4879741668701,None,-1,-1,1,True,523.1413841247559,454.5309543609619,right,1143.352590084076,None,pp_06,icub,clamp,2021_Dec_21_1521,exp,2021.2.3,59.54401167511826,
right,go,3,0,3,0,0,1,1,4,1143.8636701107025,None,1,0.6425750255584717,1143.8636701107025,None,1144.5916440486908,None,1145.614282131195,1145.956382036209,1145.614282131195,1145.956382036209,1144.5916440486908,None,1144.5916440486908,None,1144.5916440486908,None,-1,-1,1,True,365.0999069213867,463.77110481262207,right,1147.2996611595154,None,pp_06,icub,clamp,2021_Dec_21_1521,exp,2021.2.3,59.54401167511826,
right,go,3,0,3,0,0,2,2,4,1147.8102660179138,None,1,0.34545183181762695,1147.8102660179138,None,1148.2311120033264,None,1149.264309167862,1149.6201491355896,1149.264309167862,1149.6201491355896,1148.2311120033264,None,1148.2311120033264,None,1148.2311120033264,None,-1,-1,1,True,283.50019454956055,463.5484218597412,right,1150.855280160904,None,pp_06,icub,clamp,2021_Dec_21_1521,exp,2021.2.3,59.54401167511826,
left,go,3,0,3,0,0,3,3,1,1151.365112066269,None,1,0.3122880458831787,1151.365112066269,None,1151.7846851348877,None,1152.8106260299683,1153.158152103424,1152.8106260299683,1153.158152103424,1151.7846851348877,None,1151.7846851348877,None,1151.7846851348877,None,-1,-1,1,True,367.6562309265137,461.4827632904053,left,1154.5050110816956,None,pp_06,icub,clamp,2021_Dec_21_1521,exp,2021.2.3,59.54401167511826,
right,go,3,0,3,0,0,4,4,4,1155.0252151489258,None,1,0.20901989936828613,1155.0252151489258,None,1155.3197910785675,None,1156.3396620750427,1156.6748270988464,1156.3396620750427,1156.6748270988464,1155.3197910785675,None,1155.3197910785675,None,1155.3197910785675,None,-1,-1,1,True,310.2679252624512,405.4408073425293,right,1157.920345067978,None,pp_06,icub,clamp,2021_Dec_21_1521,exp,2021.2.3,59.54401167511826,
left,go,3,0,3,0,0,5,5,0,1158.4469151496887,None,1,0.2355060577392578,1158.4469151496887,None,1158.8030149936676,None,1159.8000509738922,1160.1502611637115,1159.8000509738922,1160.1502611637115,1158.8030149936676,None,1158.8030149936676,None,1158.8030149936676,None,-1,-1,1,True,249.22513961791992,437.94894218444824,left,1161.3881180286407,None,pp_06,icub,clamp,2021_Dec_21_1521,exp,2021.2.3,59.54401167511826,
right,go,3,0,3,0,1,0,6,3,1161.9084911346436,None,1,0.2086939811706543,1161.9084911346436,None,1162.202898979187,None,1163.2057530879974,1163.5591411590576,1163.2057530879974,1163.5591411590576,1162.202898979187,None,1162.202898979187,None,1162.202898979187,None,-1,-1,1,True,278.3358097076416,448.469877243042,right,1164.8160660266876,None,pp_06,icub,clamp,2021_Dec_21_1521,exp,2021.2.3,59.54401167511826,
left,stop,3,0,3,0,1,1,7,2,1165.336508989334,None,1,0.24505400657653809,1165.336508989334,None,1165.691742181778,None,1166.6909999847412,1167.0249481201172,1166.6909999847412,1167.0249481201172,1165.691742181778,None,1165.691742181778,None,1165.691742181778,None,200,300,1,True,479.3887138366699,-1.0,-1,1171.0768711566925,None,pp_06,icub,clamp,2021_Dec_21_1521,exp,2021.2.3,59.54401167511826,
right,stop,3,0,3,0,1,2,8,5,1171.607087135315,None,1,0.5569260120391846,1171.607087135315,None,1172.281550168991,None,1173.2640671730042,1173.6232450008392,1173.2640671730042,1173.6232450008392,1172.281550168991,None,1172.281550168991,None,1172.281550168991,None,250,300,0,True,312.2673034667969,463.7765884399414,right,1174.9342930316925,None,pp_06,icub,clamp,2021_Dec_21_1521,exp,2021.2.3,59.54401167511826,
left,go,3,0,3,0,1,3,9,1,1175.4473559856415,None,1,0.1692359447479248,1175.4473559856415,None,1175.7241411209106,None,1176.7243571281433,1177.0783081054688,1176.7243571281433,1177.0783081054688,1175.7241411209106,None,1175.7241411209106,None,1175.7241411209106,None,-1,-1,1,True,349.0290641784668,430.570125579834,left,1178.385290145874,None,pp_06,icub,clamp,2021_Dec_21_1521,exp,2021.2.3,59.54401167511826,
left,stop,3,0,3,0,1,4,10,2,1178.9027671813965,None,1,0.1489570140838623,1178.9027671813965,None,1179.131373167038,None,1180.1644830703735,1180.523243188858,1180.1644830703735,1180.523243188858,1179.131373167038,None,1179.131373167038,None,1179.131373167038,None,250,250,1,True,362.61439323425293,-1.0,-1,1184.3763241767883,None,pp_06,icub,clamp,2021_Dec_21_1521,exp,2021.2.3,59.54401167511826,
right,go,3,0,3,0,1,5,11,3,1184.9069101810455,None,1,0.02704906463623047,1184.9069101810455,None,1185.02445602417,None,1186.0106120109558,1186.350425004959,1186.0106120109558,1186.350425004959,1185.02445602417,None,1185.02445602417,None,1185.02445602417,None,-1,-1,1,True,405.04980087280273,431.1826229095459,right,1187.7485401630402,None,pp_06,icub,clamp,2021_Dec_21_1521,exp,2021.2.3,59.54401167511826,
