Holder,Action,blocks.thisRepN,blocks.thisTrialN,blocks.thisN,blocks.thisIndex,trials.thisRepN,trials.thisTrialN,trials.thisN,trials.thisIndex,start_msg.started,start_msg.stopped,RespButton_start_trial.keys,RespButton_start_trial.rt,RespButton_start_trial.started,RespButton_start_trial.stopped,GREEN.started,GREEN.stopped,LEFT_RED.started,LEFT_RED.stopped,RIGHT_RED.started,RIGHT_RED.stopped,LEFT_CIRCLE.started,LEFT_CIRCLE.stopped,CENTER_CIRCLE.started,CENTER_CIRCLE.stopped,RIGHT_CIRCLE.started,RIGHT_CIRCLE.stopped,SOUND_DELAY_MS_LEFT,SOUND_DELAY_MS_RIGHT,CORRECT,VALIDITY,RELEASE_TIME,TOUCH_TIME,BOTTLE_RESPONSE_POSITION,text.started,text.stopped,pid,left_position,right_position,date,expName,psychopyVersion,frameRate,
left,go,0,0,0,0,0,0,0,0,71.12909698486328,None,1,2.2878310680389404,71.12909698486328,None,73.51792597770691,None,74.52994012832642,74.88194108009338,74.52994012832642,74.88194108009338,73.51792597770691,None,73.51792597770691,None,73.51792597770691,None,-1,-1,1,True,375.92387199401855,733.2963943481445,left,76.52815413475037,None,pp_07,icub,clamp,2021_Dec_21_1625,exp,2021.2.3,60.13520120319035,
right,go,0,0,0,0,0,1,1,3,77.05165910720825,None,1,0.39406895637512207,77.05165910720825,None,77.52618408203125,None,78.5282621383667,78.88897514343262,78.5282621383667,78.88897514343262,77.52618408203125,None,77.52618408203125,None,77.52618408203125,None,-1,-1,1,True,141.86954498291016,578.751802444458,right,80.13737201690674,None,pp_07,icub,clamp,2021_Dec_21_1625,exp,2021.2.3,60.13520120319035,
right,go,0,0,0,0,0,2,2,3,80.64325594902039,None,1,0.19971084594726562,80.64325594902039,None,80.93791699409485,None,81.94990015029907,82.29232501983643,81.94990015029907,82.29232501983643,80.93791699409485,None,80.93791699409485,None,80.93791699409485,None,,,0,False,-1.0,-1.0,-1,82.81253099441528,None,pp_07,icub,clamp,2021_Dec_21_1625,exp,2021.2.3,60.13520120319035,
right,go,0,0,0,0,0,3,3,4,83.29847502708435,None,1,0.7203829288482666,83.29847502708435,None,84.14139795303345,None,85.1418571472168,85.48997807502747,85.1418571472168,85.48997807502747,84.14139795303345,None,84.14139795303345,None,84.14139795303345,None,,,0,False,-1.0,-1.0,-1,85.95664095878601,None,pp_07,icub,clamp,2021_Dec_21_1625,exp,2021.2.3,60.13520120319035,
left,go,0,0,0,0,0,4,4,0,86.4850480556488,None,1,0.6151959896087646,86.4850480556488,None,87.19061303138733,None,88.19382810592651,88.55006098747253,88.19382810592651,88.55006098747253,87.19061303138733,None,87.19061303138733,None,87.19061303138733,None,,,0,False,-1.0,-1.0,-1,89.02564811706543,None,pp_07,icub,clamp,2021_Dec_21_1625,exp,2021.2.3,60.13520120319035,
left,go,0,0,0,0,0,5,5,0,89.55022811889648,None,1,0.6465671062469482,89.55022811889648,None,90.3075921535492,None,91.32230615615845,91.66575598716736,91.32230615615845,91.66575598716736,90.3075921535492,None,90.3075921535492,None,90.3075921535492,None,,,0,False,-1.0,-1.0,-1,92.04631400108337,None,pp_07,icub,clamp,2021_Dec_21_1625,exp,2021.2.3,60.13520120319035,
left,stop,0,0,0,0,1,0,6,2,92.5689389705658,None,1,0.737835168838501,92.5689389705658,None,93.41738200187683,None,94.45111393928528,94.79571294784546,94.45111393928528,94.79571294784546,93.41738200187683,None,93.41738200187683,None,93.41738200187683,None,,,0,False,-1.0,-1.0,-1,95.2688479423523,None,pp_07,icub,clamp,2021_Dec_21_1625,exp,2021.2.3,60.13520120319035,
left,go,0,0,0,0,1,1,7,0,95.80185008049011,None,1,1.1421270370483398,95.80185008049011,None,97.0452229976654,None,98.06902503967285,98.4241189956665,98.06902503967285,98.4241189956665,97.0452229976654,None,97.0452229976654,None,97.0452229976654,None,-1,-1,1,True,415.3914451599121,664.9911403656006,left,100.03268909454346,None,pp_07,icub,clamp,2021_Dec_21_1625,exp,2021.2.3,60.13520120319035,
right,go,0,0,0,0,1,2,8,4,100.55954599380493,None,1,1.0533738136291504,100.55954599380493,None,101.72087216377258,None,102.73687815666199,103.08422112464905,102.73687815666199,103.08422112464905,101.72087216377258,None,101.72087216377258,None,101.72087216377258,None,-1,-1,1,True,279.76036071777344,632.9634189605713,right,104.52745413780212,None,pp_07,icub,clamp,2021_Dec_21_1625,exp,2021.2.3,60.13520120319035,
right,go,0,0,0,0,1,3,9,3,105.05455207824707,None,1,0.2591590881347656,105.05455207824707,None,105.41494011878967,None,106.41088008880615,106.77950096130371,106.41088008880615,106.77950096130371,105.41494011878967,None,105.41494011878967,None,105.41494011878967,None,-1,-1,1,True,59.59820747375488,713.4871482849121,right,108.08303093910217,None,pp_07,icub,clamp,2021_Dec_21_1625,exp,2021.2.3,60.13520120319035,
right,go,0,0,0,0,1,4,10,3,108.60256505012512,None,1,0.27539587020874023,108.60256505012512,None,108.95822095870972,None,109.9720709323883,110.30706000328064,109.9720709323883,110.30706000328064,108.95822095870972,None,108.95822095870972,None,108.95822095870972,None,,,0,False,-1.0,-1.0,-1,110.66949510574341,None,pp_07,icub,clamp,2021_Dec_21_1625,exp,2021.2.3,60.13520120319035,
right,stop,0,0,0,0,1,5,11,5,111.16305708885193,None,1,1.255587100982666,111.16305708885193,None,112.49391198158264,None,113.49993896484375,113.82958602905273,113.49993896484375,113.82958602905273,112.49391198158264,None,112.49391198158264,None,112.49391198158264,None,500,500,0,True,284.34014320373535,594.8271751403809,right,115.27612900733948,None,pp_07,icub,clamp,2021_Dec_21_1625,exp,2021.2.3,60.13520120319035,
left,go,0,0,0,0,2,0,12,1,115.78317308425903,None,1,1.1826682090759277,115.78317308425903,None,117.06627893447876,None,118.0789749622345,118.44045901298523,118.0789749622345,118.44045901298523,117.06627893447876,None,117.06627893447876,None,117.06627893447876,None,-1,-1,1,True,291.22400283813477,586.601972579956,left,119.85139393806458,None,pp_07,icub,clamp,2021_Dec_21_1625,exp,2021.2.3,60.13520120319035,
left,go,0,0,0,0,2,1,13,0,120.36115002632141,None,1,0.3333568572998047,120.36115002632141,None,120.78003716468811,None,121.80309700965881,122.15866208076477,121.80309700965881,122.15866208076477,120.78003716468811,None,120.78003716468811,None,120.78003716468811,None,-1,-1,1,True,378.9653778076172,513.298749923706,left,123.57731795310974,None,pp_07,icub,clamp,2021_Dec_21_1625,exp,2021.2.3,60.13520120319035,
right,go,0,0,0,0,2,2,14,3,124.09769201278687,None,1,0.45363783836364746,124.09769201278687,None,124.64204907417297,None,125.63036799430847,125.98289394378662,125.63036799430847,125.98289394378662,124.64204907417297,None,124.64204907417297,None,124.64204907417297,None,-1,-1,1,True,224.5626449584961,626.0354518890381,right,127.36012196540833,None,pp_07,icub,clamp,2021_Dec_21_1625,exp,2021.2.3,60.13520120319035,
left,go,0,0,0,0,2,3,15,1,127.87514209747314,None,1,0.37548208236694336,127.87514209747314,None,128.35742211341858,None,129.3853051662445,129.74452900886536,129.3853051662445,129.74452900886536,128.35742211341858,None,128.35742211341858,None,128.35742211341858,None,-1,-1,1,True,243.84093284606934,524.0089893341064,left,131.02119493484497,None,pp_07,icub,clamp,2021_Dec_21_1625,exp,2021.2.3,60.13520120319035,
left,go,0,0,0,0,2,4,16,1,131.55606508255005,None,1,0.35262012481689453,131.55606508255005,None,132.03238105773926,None,133.02761697769165,133.39661407470703,133.02761697769165,133.39661407470703,132.03238105773926,None,132.03238105773926,None,132.03238105773926,None,-1,-1,1,True,265.3927803039551,581.3970565795898,left,134.76306414604187,None,pp_07,icub,clamp,2021_Dec_21_1625,exp,2021.2.3,60.13520120319035,
right,go,0,0,0,0,2,5,17,3,135.29783606529236,None,1,0.5337610244750977,135.29783606529236,None,135.95970010757446,None,136.95218110084534,137.31438207626343,136.95218110084534,137.31438207626343,135.95970010757446,None,135.95970010757446,None,135.95970010757446,None,-1,-1,1,True,303.23266983032227,694.9927806854248,right,138.8448841571808,None,pp_07,icub,clamp,2021_Dec_21_1625,exp,2021.2.3,60.13520120319035,
left,stop,0,0,0,0,3,0,18,2,139.34741115570068,None,1,0.29142189025878906,139.34741115570068,None,139.76269912719727,None,140.76001715660095,141.11718606948853,140.76001715660095,141.11718606948853,139.76269912719727,None,139.76269912719727,None,139.76269912719727,None,,,0,False,-1.0,-1.0,-1,141.63795113563538,None,pp_07,icub,clamp,2021_Dec_21_1625,exp,2021.2.3,60.13520120319035,
left,go,0,0,0,0,3,1,19,0,142.13222908973694,None,1,1.1484510898590088,142.13222908973694,None,143.38955807685852,None,144.39826107025146,144.75227904319763,144.39826107025146,144.75227904319763,143.38955807685852,None,143.38955807685852,None,143.38955807685852,None,-1,-1,1,True,338.70530128479004,615.6039237976074,left,146.2340669631958,None,pp_07,icub,clamp,2021_Dec_21_1625,exp,2021.2.3,60.13520120319035,
right,go,0,0,0,0,3,2,20,4,146.7477309703827,None,1,0.22586393356323242,146.7477309703827,None,147.10175013542175,None,148.11315608024597,148.46880793571472,148.11315608024597,148.46880793571472,147.10175013542175,None,147.10175013542175,None,147.10175013542175,None,-1,-1,1,True,328.98473739624023,736.361026763916,right,150.05348896980286,None,pp_07,icub,clamp,2021_Dec_21_1625,exp,2021.2.3,60.13520120319035,
left,go,0,0,0,0,3,3,21,1,150.57223200798035,None,1,0.5271620750427246,150.57223200798035,None,151.2021210193634,None,152.1981749534607,152.54438400268555,152.1981749534607,152.54438400268555,151.2021210193634,None,151.2021210193634,None,151.2021210193634,None,-1,-1,1,True,52.38080024719238,648.9903926849365,left,153.7779049873352,None,pp_07,icub,clamp,2021_Dec_21_1625,exp,2021.2.3,60.13520120319035,
left,go,0,0,0,0,3,4,22,1,154.28647708892822,None,1,0.35211801528930664,154.28647708892822,None,154.76695108413696,None,155.76094508171082,156.12644410133362,155.76094508171082,156.12644410133362,154.76695108413696,None,154.76695108413696,None,154.76695108413696,None,,,0,False,-1.0,-1.0,-1,156.34151911735535,None,pp_07,icub,clamp,2021_Dec_21_1625,exp,2021.2.3,60.13520120319035,
left,stop,0,0,0,0,3,5,23,2,156.86591815948486,None,1,1.184758186340332,156.86591815948486,None,158.15767693519592,None,159.17568612098694,159.50066804885864,159.17568612098694,159.50066804885864,158.15767693519592,None,158.15767693519592,None,158.15767693519592,None,500,450,0,True,447.6156234741211,632.502555847168,left,161.14618706703186,None,pp_07,icub,clamp,2021_Dec_21_1625,exp,2021.2.3,60.13520120319035,
left,go,0,0,0,0,4,0,24,1,161.66688108444214,None,1,1.1878221035003662,161.66688108444214,None,162.94943594932556,None,163.9772219657898,164.3331000804901,163.9772219657898,164.3331000804901,162.94943594932556,None,162.94943594932556,None,162.94943594932556,None,-1,-1,1,True,365.8027648925781,645.2887058258057,left,165.8679780960083,None,pp_07,icub,clamp,2021_Dec_21_1625,exp,2021.2.3,60.13520120319035,
right,go,0,0,0,0,4,1,25,4,166.39926409721375,None,1,0.3414900302886963,166.39926409721375,None,166.82121801376343,None,167.81836199760437,168.14434099197388,167.81836199760437,168.14434099197388,166.82121801376343,None,166.82121801376343,None,166.82121801376343,None,-1,-1,1,True,499.50623512268066,601.0873317718506,right,169.81440615653992,None,pp_07,icub,clamp,2021_Dec_21_1625,exp,2021.2.3,60.13520120319035,
right,go,0,0,0,0,4,2,26,4,170.33518600463867,None,1,0.2923150062561035,170.33518600463867,None,170.75121116638184,None,171.76145195960999,172.11137700080872,171.76145195960999,172.11137700080872,170.75121116638184,None,170.75121116638184,None,170.75121116638184,None,-1,-1,1,True,319.92292404174805,490.59033393859863,right,173.4514410495758,None,pp_07,icub,clamp,2021_Dec_21_1625,exp,2021.2.3,60.13520120319035,
left,go,0,0,0,0,4,3,27,1,173.9824481010437,None,1,0.34504008293151855,173.9824481010437,None,174.40286016464233,None,175.42549014091492,175.78135108947754,175.42549014091492,175.78135108947754,174.40286016464233,None,174.40286016464233,None,174.40286016464233,None,-1,-1,1,True,403.72681617736816,665.0974750518799,left,177.37412405014038,None,pp_07,icub,clamp,2021_Dec_21_1625,exp,2021.2.3,60.13520120319035,
right,go,0,0,0,0,4,4,28,3,177.88467812538147,None,1,0.20308399200439453,177.88467812538147,None,178.17979097366333,None,179.20369696617126,179.56477308273315,179.20369696617126,179.56477308273315,178.17979097366333,None,178.17979097366333,None,178.17979097366333,None,-1,-1,1,True,294.48843002319336,746.6955184936523,right,181.09321999549866,None,pp_07,icub,clamp,2021_Dec_21_1625,exp,2021.2.3,60.13520120319035,
right,stop,0,0,0,0,4,5,29,5,181.61149716377258,None,1,0.3021860122680664,181.61149716377258,None,182.02394700050354,None,183.05026602745056,183.3974461555481,183.05026602745056,183.3974461555481,182.02394700050354,None,182.02394700050354,None,182.02394700050354,None,450,450,0,True,277.70137786865234,650.240421295166,right,184.84603905677795,None,pp_07,icub,clamp,2021_Dec_21_1625,exp,2021.2.3,60.13520120319035,
left,go,0,0,0,0,5,0,30,1,185.35173296928406,None,1,2.1627018451690674,185.35173296928406,None,187.62521505355835,None,188.64444994926453,188.9926381111145,188.64444994926453,188.9926381111145,187.62521505355835,None,187.62521505355835,None,187.62521505355835,None,-1,-1,1,True,527.733325958252,554.229736328125,left,190.61107897758484,None,pp_07,icub,clamp,2021_Dec_21_1625,exp,2021.2.3,60.13520120319035,
left,stop,0,0,0,0,5,1,31,2,191.11380195617676,None,1,0.25979113578796387,191.11380195617676,None,191.47430300712585,None,192.47350215911865,192.80441093444824,192.47350215911865,192.80441093444824,191.47430300712585,None,191.47430300712585,None,191.47430300712585,None,450,400,0,True,321.7353820800781,481.69589042663574,left,194.19032502174377,None,pp_07,icub,clamp,2021_Dec_21_1625,exp,2021.2.3,60.13520120319035,
left,go,0,0,0,0,5,2,32,1,194.71172213554382,None,1,1.1386289596557617,194.71172213554382,None,195.97882914543152,None,196.9975769519806,197.35641407966614,196.9975769519806,197.35641407966614,195.97882914543152,None,195.97882914543152,None,195.97882914543152,None,-1,-1,1,True,521.5587615966797,577.3882865905762,left,198.98229908943176,None,pp_07,icub,clamp,2021_Dec_21_1625,exp,2021.2.3,60.13520120319035,
left,go,0,0,0,0,5,3,33,0,199.48521399497986,None,1,0.20711088180541992,199.48521399497986,None,199.78312802314758,None,200.78411507606506,201.1286871433258,200.78411507606506,201.1286871433258,199.78312802314758,None,199.78312802314758,None,199.78312802314758,None,-1,-1,1,True,390.1865482330322,553.9145469665527,left,202.60277104377747,None,pp_07,icub,clamp,2021_Dec_21_1625,exp,2021.2.3,60.13520120319035,
right,go,0,0,0,0,5,4,34,4,203.11037802696228,None,1,0.19542884826660156,203.11037802696228,None,203.40734100341797,None,204.40988111495972,204.76345705986023,204.40988111495972,204.76345705986023,203.40734100341797,None,203.40734100341797,None,203.40734100341797,None,-1,-1,1,True,269.68860626220703,827.7502059936523,right,206.39208912849426,None,pp_07,icub,clamp,2021_Dec_21_1625,exp,2021.2.3,60.13520120319035,
right,go,0,0,0,0,5,5,35,4,206.92841696739197,None,1,0.5052518844604492,206.92841696739197,None,207.534029006958,None,208.53869009017944,208.9019091129303,208.53869009017944,208.9019091129303,207.534029006958,None,207.534029006958,None,207.534029006958,None,-1,-1,1,True,477.0362377166748,620.6862926483154,right,210.53121614456177,None,pp_07,icub,clamp,2021_Dec_21_1625,exp,2021.2.3,60.13520120319035,
right,go,0,0,0,0,6,0,36,3,211.06199312210083,None,1,0.24966907501220703,211.06199312210083,None,211.4222321510315,None,212.44200706481934,212.79087710380554,212.44200706481934,212.79087710380554,211.4222321510315,None,211.4222321510315,None,211.4222321510315,None,-1,-1,1,True,538.7170314788818,868.7272071838379,right,214.72823810577393,None,pp_07,icub,clamp,2021_Dec_21_1625,exp,2021.2.3,60.13520120319035,
left,stop,0,0,0,0,6,1,37,2,215.24381804466248,None,1,0.14145493507385254,215.24381804466248,None,215.4650800228119,None,216.47785711288452,216.84448409080505,216.47785711288452,216.84448409080505,215.4650800228119,None,215.4650800228119,None,215.4650800228119,None,400,400,1,True,403.4121036529541,-1.0,-1,220.7799460887909,None,pp_07,icub,clamp,2021_Dec_21_1625,exp,2021.2.3,60.13520120319035,
left,go,0,0,0,0,6,2,38,1,221.278165102005,None,1,1.7777800559997559,221.278165102005,None,223.1940360069275,None,224.17143511772156,224.50267815589905,224.17143511772156,224.50267815589905,223.1940360069275,None,223.1940360069275,None,223.1940360069275,None,-1,-1,1,True,487.40625381469727,812.4310970306396,left,226.3916380405426,None,pp_07,icub,clamp,2021_Dec_21_1625,exp,2021.2.3,60.13520120319035,
right,stop,0,0,0,0,6,3,39,5,226.90815496444702,None,1,0.14172792434692383,226.90815496444702,None,227.1406490802765,None,228.146959066391,228.5149040222168,228.146959066391,228.5149040222168,227.1406490802765,None,227.1406490802765,None,227.1406490802765,None,450,400,1,True,263.5166645050049,-1.0,-1,232.28872108459473,None,pp_07,icub,clamp,2021_Dec_21_1625,exp,2021.2.3,60.13520120319035,
left,go,0,0,0,0,6,4,40,1,232.81876301765442,None,1,0.7271578311920166,232.81876301765442,None,233.67731499671936,None,234.68235993385315,235.0245759487152,234.68235993385315,235.0245759487152,233.67731499671936,None,233.67731499671936,None,233.67731499671936,None,-1,-1,1,True,1131.5596103668213,482.88965225219727,left,237.16427993774414,None,pp_07,icub,clamp,2021_Dec_21_1625,exp,2021.2.3,60.13520120319035,
right,stop,0,0,0,0,6,5,41,5,237.66518115997314,None,1,0.1601250171661377,237.66518115997314,None,237.9009189605713,None,238.93072295188904,239.28929996490479,238.93072295188904,239.28929996490479,237.9009189605713,None,237.9009189605713,None,237.9009189605713,None,450,450,1,True,297.412633895874,-1.0,-1,243.10572910308838,None,pp_07,icub,clamp,2021_Dec_21_1625,exp,2021.2.3,60.13520120319035,
left,stop,0,0,0,0,7,0,42,2,243.63669514656067,None,1,0.3943619728088379,243.63669514656067,None,244.1252191066742,None,245.10427498817444,245.45685815811157,245.10427498817444,245.45685815811157,244.1252191066742,None,244.1252191066742,None,244.1252191066742,None,450,500,1,True,512.418270111084,-1.0,-1,249.53345394134521,None,pp_07,icub,clamp,2021_Dec_21_1625,exp,2021.2.3,60.13520120319035,
right,go,0,0,0,0,7,1,43,4,250.06426906585693,None,1,0.06956601142883301,250.06426906585693,None,250.24312615394592,None,251.22241497039795,251.57576513290405,251.22241497039795,251.57576513290405,250.24312615394592,None,250.24312615394592,None,250.24312615394592,None,-1,-1,1,True,383.16798210144043,721.4813232421875,right,253.21211504936218,None,pp_07,icub,clamp,2021_Dec_21_1625,exp,2021.2.3,60.13520120319035,
right,go,0,0,0,0,7,2,44,4,253.73162508010864,None,1,0.1815779209136963,253.73162508010864,None,254.0246500968933,None,255.05432295799255,255.40858507156372,255.05432295799255,255.40858507156372,254.0246500968933,None,254.0246500968933,None,254.0246500968933,None,-1,-1,1,True,337.0058536529541,776.0522365570068,right,257.0415151119232,None,pp_07,icub,clamp,2021_Dec_21_1625,exp,2021.2.3,60.13520120319035,
left,go,0,0,0,0,7,3,45,0,257.54206895828247,None,1,0.10630393028259277,257.54206895828247,None,257.7718949317932,None,258.7779221534729,259.1183750629425,258.7779221534729,259.1183750629425,257.7718949317932,None,257.7718949317932,None,257.7718949317932,None,-1,-1,1,True,420.1228618621826,666.1252975463867,left,260.7369351387024,None,pp_07,icub,clamp,2021_Dec_21_1625,exp,2021.2.3,60.13520120319035,
left,stop,0,0,0,0,7,4,46,2,261.2499101161957,None,1,0.2324519157409668,261.2499101161957,None,261.6048481464386,None,262.611132144928,262.96250104904175,262.611132144928,262.96250104904175,261.6048481464386,None,261.6048481464386,None,261.6048481464386,None,500,500,0,True,422.49608039855957,627.7384757995605,left,264.53656697273254,None,pp_07,icub,clamp,2021_Dec_21_1625,exp,2021.2.3,60.13520120319035,
right,stop,0,0,0,0,7,5,47,5,265.0546340942383,None,1,0.8715469837188721,265.0546340942383,None,266.0269031524658,None,267.0381021499634,267.3965640068054,267.0381021499634,267.3965640068054,266.0269031524658,None,266.0269031524658,None,266.0269031524658,None,450,500,1,True,457.7159881591797,-1.0,-1,271.37237906455994,None,pp_07,icub,clamp,2021_Dec_21_1625,exp,2021.2.3,60.13520120319035,
right,go,0,0,0,0,8,0,48,3,271.8654770851135,None,1,0.733422040939331,271.8654770851135,None,272.7243311405182,None,273.70972299575806,274.06131196022034,273.70972299575806,274.06131196022034,272.7243311405182,None,272.7243311405182,None,272.7243311405182,None,-1,-1,1,True,321.81859016418457,922.64723777771,right,275.8347270488739,None,pp_07,icub,clamp,2021_Dec_21_1625,exp,2021.2.3,60.13520120319035,
right,stop,0,0,0,0,8,1,49,5,276.3382170200348,None,1,0.31696510314941406,276.3382170200348,None,276.7561089992523,None,277.7656660079956,278.1257700920105,277.7656660079956,278.1257700920105,276.7561089992523,None,276.7561089992523,None,276.7561089992523,None,450,550,1,True,292.53482818603516,-1.0,-1,281.94305396080017,None,pp_07,icub,clamp,2021_Dec_21_1625,exp,2021.2.3,60.13520120319035,
left,go,0,0,0,0,8,2,50,0,282.47400403022766,None,1,0.4246969223022461,282.47400403022766,None,283.02381205558777,None,284.0334939956665,284.39193415641785,284.0334939956665,284.39193415641785,283.02381205558777,None,283.02381205558777,None,283.02381205558777,None,,,0,False,-1.0,-1.0,-1,284.88702416419983,None,pp_07,icub,clamp,2021_Dec_21_1625,exp,2021.2.3,60.13520120319035,
right,stop,0,0,0,0,8,3,51,5,285.3796899318695,None,1,1.2770590782165527,285.3796899318695,None,286.77371096611023,None,287.747652053833,288.0949890613556,287.747652053833,288.0949890613556,286.77371096611023,None,286.77371096611023,None,286.77371096611023,None,450,600,1,True,506.680965423584,-1.0,-1,292.1712031364441,None,pp_07,icub,clamp,2021_Dec_21_1625,exp,2021.2.3,60.13520120319035,
right,stop,0,0,0,0,8,4,52,5,292.6647560596466,None,1,0.8549919128417969,292.6647560596466,None,293.647341966629,None,294.6305389404297,294.96650099754333,294.6305389404297,294.96650099754333,293.647341966629,None,293.647341966629,None,293.647341966629,None,450,650,1,True,531.4500331878662,-1.0,-1,299.06968808174133,None,pp_07,icub,clamp,2021_Dec_21_1625,exp,2021.2.3,60.13520120319035,
right,go,0,0,0,0,8,5,53,3,299.60306906700134,None,1,1.8627591133117676,299.60306906700134,None,301.5750141143799,None,302.577849149704,302.94139194488525,302.577849149704,302.94139194488525,301.5750141143799,None,301.5750141143799,None,301.5750141143799,None,-1,-1,1,True,440.1886463165283,930.159330368042,right,304.82975697517395,None,pp_07,icub,clamp,2021_Dec_21_1625,exp,2021.2.3,60.13520120319035,
left,stop,0,0,0,0,9,0,54,2,305.33253598213196,None,1,0.20169782638549805,305.33253598213196,None,305.62442994117737,None,306.6552710533142,307.01330614089966,306.6552710533142,307.01330614089966,305.62442994117737,None,305.62442994117737,None,305.62442994117737,None,450,700,1,True,468.0061340332031,-1.0,-1,310.9702880382538,None,pp_07,icub,clamp,2021_Dec_21_1625,exp,2021.2.3,60.13520120319035,
left,stop,0,0,0,0,9,1,55,2,311.50164008140564,None,1,1.3380649089813232,311.50164008140564,None,312.9793441295624,None,313.9803841114044,314.33035802841187,313.9803841114044,314.33035802841187,312.9793441295624,None,312.9793441295624,None,312.9793441295624,None,500,700,1,True,653.8276672363281,-1.0,-1,318.50969910621643,None,pp_07,icub,clamp,2021_Dec_21_1625,exp,2021.2.3,60.13520120319035,
right,go,0,0,0,0,9,2,56,4,319.0407061576843,None,1,2.632960081100464,319.0407061576843,None,321.7641291618347,None,322.7451100349426,323.10683393478394,322.7451100349426,323.10683393478394,321.7641291618347,None,321.7641291618347,None,321.7641291618347,None,-1,-1,1,True,433.02035331726074,891.3156986236572,right,324.95777010917664,None,pp_07,icub,clamp,2021_Dec_21_1625,exp,2021.2.3,60.13520120319035,
right,go,0,0,0,0,9,3,57,4,325.4899890422821,None,1,0.27224111557006836,325.4899890422821,None,325.84731006622314,None,326.8452789783478,327.197998046875,326.8452789783478,327.197998046875,325.84731006622314,None,325.84731006622314,None,325.84731006622314,None,-1,-1,1,True,412.0643138885498,694.0186023712158,right,328.8336269855499,None,pp_07,icub,clamp,2021_Dec_21_1625,exp,2021.2.3,60.13520120319035,
right,stop,0,0,0,0,9,4,58,5,329.3352601528168,None,1,0.7279279232025146,329.3352601528168,None,330.1822941303253,None,331.19836807250977,331.5444359779358,331.19836807250977,331.5444359779358,330.1822941303253,None,330.1822941303253,None,330.1822941303253,None,550,700,0,True,308.3150386810303,700.8829116821289,right,333.0828540325165,None,pp_07,icub,clamp,2021_Dec_21_1625,exp,2021.2.3,60.13520120319035,
right,go,0,0,0,0,9,5,59,3,333.5881350040436,None,1,1.1058659553527832,333.5881350040436,None,334.81003999710083,None,335.81361293792725,336.1703591346741,335.81361293792725,336.1703591346741,334.81003999710083,None,334.81003999710083,None,334.81003999710083,None,-1,-1,1,True,375.87451934814453,1023.0846405029297,right,338.09701704978943,None,pp_07,icub,clamp,2021_Dec_21_1625,exp,2021.2.3,60.13520120319035,
left,go,0,0,0,0,10,0,60,0,338.6211760044098,None,1,0.4791290760040283,338.6211760044098,None,339.22376799583435,None,340.2236430644989,340.57441115379333,340.2236430644989,340.57441115379333,339.22376799583435,None,339.22376799583435,None,339.22376799583435,None,-1,-1,1,True,139.89663124084473,721.6253280639648,left,341.99039793014526,None,pp_07,icub,clamp,2021_Dec_21_1625,exp,2021.2.3,60.13520120319035,
right,stop,0,0,0,0,10,1,61,5,342.5072989463806,None,1,0.09592604637145996,342.5072989463806,None,342.678750038147,None,343.67227602005005,344.0102970600128,343.67227602005005,344.0102970600128,342.678750038147,None,342.678750038147,None,342.678750038147,None,550,650,0,True,248.19588661193848,620.9168434143066,right,345.4471230506897,None,pp_07,icub,clamp,2021_Dec_21_1625,exp,2021.2.3,60.13520120319035,
right,stop,0,0,0,0,10,2,62,5,345.9543740749359,None,1,1.2826120853424072,345.9543740749359,None,347.365275144577,None,348.3638229370117,348.70422196388245,348.3638229370117,348.70422196388245,347.365275144577,None,347.365275144577,None,347.365275144577,None,550,600,1,True,419.48699951171875,-1.0,-1,352.66497707366943,None,pp_07,icub,clamp,2021_Dec_21_1625,exp,2021.2.3,60.13520120319035,
left,go,0,0,0,0,10,3,63,0,353.15916299819946,None,1,0.49235105514526367,353.15916299819946,None,353.77149415016174,None,354.7544231414795,355.093199968338,354.7544231414795,355.093199968338,353.77149415016174,None,353.77149415016174,None,353.77149415016174,None,-1,-1,1,True,337.2020721435547,815.558910369873,left,356.81984400749207,None,pp_07,icub,clamp,2021_Dec_21_1625,exp,2021.2.3,60.13520120319035,
left,stop,0,0,0,0,10,4,64,2,357.33786511421204,None,1,0.07612800598144531,357.33786511421204,None,357.5093460083008,None,358.5051281452179,358.8660309314728,358.5051281452179,358.8660309314728,357.5093460083008,None,357.5093460083008,None,357.5093460083008,None,550,650,1,True,492.02561378479004,-1.0,-1,362.8702530860901,None,pp_07,icub,clamp,2021_Dec_21_1625,exp,2021.2.3,60.13520120319035,
right,stop,0,0,0,0,10,5,65,5,363.4022419452667,None,1,0.7583539485931396,363.4022419452667,None,364.25979709625244,None,365.2325510978699,365.58217000961304,365.2325510978699,365.58217000961304,364.25979709625244,None,364.25979709625244,None,364.25979709625244,None,600,650,1,True,572.22580909729,-1.0,-1,369.72772908210754,None,pp_07,icub,clamp,2021_Dec_21_1625,exp,2021.2.3,60.13520120319035,
left,stop,0,0,0,0,11,0,66,2,370.2579879760742,None,1,0.606489896774292,370.2579879760742,None,370.99408316612244,None,371.96476316452026,372.31764912605286,371.96476316452026,372.31764912605286,370.99408316612244,None,370.99408316612244,None,370.99408316612244,None,600,700,1,True,550.5430698394775,-1.0,-1,376.4244019985199,None,pp_07,icub,clamp,2021_Dec_21_1625,exp,2021.2.3,60.13520120319035,
right,go,0,0,0,0,11,1,67,3,376.9560160636902,None,1,1.6773769855499268,376.9560160636902,None,378.7425379753113,None,379.7227289676666,380.0626389980316,379.7227289676666,380.0626389980316,378.7425379753113,None,378.7425379753113,None,378.7425379753113,None,-1,-1,1,True,571.5193748474121,908.7488651275635,right,382.1073579788208,None,pp_07,icub,clamp,2021_Dec_21_1625,exp,2021.2.3,60.13520120319035,
right,go,0,0,0,0,11,2,68,4,382.60607504844666,None,1,0.3737480640411377,382.60607504844666,None,383.08557295799255,None,384.1195499897003,384.46466398239136,384.1195499897003,384.46466398239136,383.08557295799255,None,383.08557295799255,None,383.08557295799255,None,-1,-1,1,True,418.75362396240234,911.4792346954346,right,386.3030891418457,None,pp_07,icub,clamp,2021_Dec_21_1625,exp,2021.2.3,60.13520120319035,
right,stop,0,0,0,0,11,3,69,5,386.81340503692627,None,1,0.29244399070739746,386.81340503692627,None,387.22840213775635,None,388.22096014022827,388.549556016922,388.22096014022827,388.549556016922,387.22840213775635,None,387.22840213775635,None,387.22840213775635,None,650,700,0,True,370.2104091644287,811.4824295043945,right,390.2894959449768,None,pp_07,icub,clamp,2021_Dec_21_1625,exp,2021.2.3,60.13520120319035,
left,go,0,0,0,0,11,4,70,0,390.79265999794006,None,1,1.0162949562072754,390.79265999794006,None,391.88937497138977,None,392.9096701145172,393.27665305137634,392.9096701145172,393.27665305137634,391.88937497138977,None,391.88937497138977,None,391.88937497138977,None,-1,-1,1,True,392.04883575439453,2031.0297012329102,left,396.2186391353607,None,pp_07,icub,clamp,2021_Dec_21_1625,exp,2021.2.3,60.13520120319035,
left,stop,0,0,0,0,11,5,71,2,396.71356415748596,None,1,0.6192870140075684,396.71356415748596,None,397.43930411338806,None,398.4489960670471,398.81192207336426,398.4489960670471,398.81192207336426,397.43930411338806,None,397.43930411338806,None,397.43930411338806,None,650,650,0,True,602.9794216156006,790.8203601837158,left,400.735533952713,None,pp_07,icub,clamp,2021_Dec_21_1625,exp,2021.2.3,60.13520120319035,
right,go,0,0,0,0,12,0,72,4,401.2364730834961,None,1,1.0832090377807617,401.2364730834961,None,402.39999508857727,None,403.4038529396057,403.76867294311523,403.4038529396057,403.76867294311523,402.39999508857727,None,402.39999508857727,None,402.39999508857727,None,-1,-1,1,True,433.2692623138428,821.0139274597168,right,405.56247210502625,None,pp_07,icub,clamp,2021_Dec_21_1625,exp,2021.2.3,60.13520120319035,
left,go,0,0,0,0,12,1,73,1,406.07047295570374,None,1,0.08139395713806152,406.07047295570374,None,406.2427451610565,None,407.2434389591217,407.59425806999207,407.2434389591217,407.59425806999207,406.2427451610565,None,406.2427451610565,None,406.2427451610565,None,-1,-1,1,True,475.3224849700928,999.0136623382568,left,409.59074902534485,None,pp_07,icub,clamp,2021_Dec_21_1625,exp,2021.2.3,60.13520120319035,
left,go,0,0,0,0,12,2,74,1,410.11645698547363,None,1,0.08837294578552246,410.11645698547363,None,410.29019594192505,None,411.3104979991913,411.65223503112793,411.3104979991913,411.65223503112793,410.29019594192505,None,410.29019594192505,None,410.29019594192505,None,-1,-1,1,True,372.09296226501465,911.6432666778564,left,413.4444839954376,None,pp_07,icub,clamp,2021_Dec_21_1625,exp,2021.2.3,60.13520120319035,
right,go,0,0,0,0,12,3,75,3,413.95096802711487,None,1,0.2198331356048584,413.95096802711487,None,414.24630904197693,None,415.25428104400635,415.5827820301056,415.25428104400635,415.5827820301056,414.24630904197693,None,414.24630904197693,None,414.24630904197693,None,-1,-1,1,True,148.7753391265869,985.8555793762207,right,417.2911479473114,None,pp_07,icub,clamp,2021_Dec_21_1625,exp,2021.2.3,60.13520120319035,
left,stop,0,0,0,0,12,4,76,2,417.80717301368713,None,1,0.11329889297485352,417.80717301368713,None,418.02838015556335,None,419.0478219985962,419.389771938324,419.0478219985962,419.389771938324,418.02838015556335,None,418.02838015556335,None,418.02838015556335,None,600,650,1,True,325.29640197753906,-1.0,-1,423.2443561553955,None,pp_07,icub,clamp,2021_Dec_21_1625,exp,2021.2.3,60.13520120319035,
left,go,0,0,0,0,12,5,77,0,423.77497816085815,None,1,1.2623679637908936,423.77497816085815,None,425.1296589374542,None,426.11019802093506,426.43308901786804,426.11019802093506,426.43308901786804,425.1296589374542,None,425.1296589374542,None,425.1296589374542,None,-1,-1,1,True,247.21002578735352,603.1055450439453,left,427.8471260070801,None,pp_07,icub,clamp,2021_Dec_21_1625,exp,2021.2.3,60.13520120319035,
left,go,1,0,1,0,0,0,0,1,448.3208291530609,None,1,2.4920430183410645,448.3208291530609,None,450.8932020664215,None,451.9132330417633,452.2375559806824,451.9132330417633,452.2375559806824,450.8932020664215,None,450.8932020664215,None,450.8932020664215,None,-1,-1,1,True,395.45726776123047,677.2418022155762,left,453.8756489753723,None,pp_07,icub,clamp,2021_Dec_21_1625,exp,2021.2.3,60.13520120319035,
right,go,1,0,1,0,0,1,1,4,454.3863070011139,None,1,0.2040271759033203,454.3863070011139,None,454.68101596832275,None,455.685476064682,456.03293108940125,455.685476064682,456.03293108940125,454.68101596832275,None,454.68101596832275,None,454.68101596832275,None,-1,-1,1,True,61.71011924743652,747.5957870483398,right,457.3732669353485,None,pp_07,icub,clamp,2021_Dec_21_1625,exp,2021.2.3,60.13520120319035,
right,go,1,0,1,0,0,2,2,4,457.8805150985718,None,1,0.2622520923614502,457.8805150985718,None,458.23863410949707,None,459.26196813583374,459.62672996520996,459.26196813583374,459.62672996520996,458.23863410949707,None,458.23863410949707,None,458.23863410949707,None,,,0,False,-1.0,-1.0,-1,459.9909760951996,None,pp_07,icub,clamp,2021_Dec_21_1625,exp,2021.2.3,60.13520120319035,
left,go,1,0,1,0,0,3,3,1,460.5197899341583,None,1,1.9578959941864014,460.5197899341583,None,462.5784900188446,None,463.5996539592743,463.9541931152344,463.5996539592743,463.9541931152344,462.5784900188446,None,462.5784900188446,None,462.5784900188446,None,,,0,False,-1.0,-1.0,-1,464.3527979850769,None,pp_07,icub,clamp,2021_Dec_21_1625,exp,2021.2.3,60.13520120319035,
right,go,1,0,1,0,0,4,4,3,464.8847670555115,None,1,1.300847053527832,464.8847670555115,None,466.2752799987793,None,467.30039405822754,467.6551949977875,467.30039405822754,467.6551949977875,466.2752799987793,None,466.2752799987793,None,466.2752799987793,None,-1,-1,1,True,523.4289169311523,659.6009731292725,right,469.37416195869446,None,pp_07,icub,clamp,2021_Dec_21_1625,exp,2021.2.3,60.13520120319035,
left,stop,1,0,1,0,0,5,5,2,469.89453315734863,None,1,0.20097613334655762,469.89453315734863,None,470.17432713508606,None,471.17280316352844,471.5349769592285,471.17280316352844,471.5349769592285,470.17432713508606,None,470.17432713508606,None,470.17432713508606,None,650,650,0,True,400.2225399017334,622.7946281433105,left,473.10518312454224,None,pp_07,icub,clamp,2021_Dec_21_1625,exp,2021.2.3,60.13520120319035,
right,stop,1,0,1,0,1,0,6,5,473.6197831630707,None,1,0.8468461036682129,473.6197831630707,None,474.59486293792725,None,475.6031279563904,475.94501209259033,475.6031279563904,475.94501209259033,474.59486293792725,None,474.59486293792725,None,474.59486293792725,None,600,650,1,True,463.60158920288086,-1.0,-1,479.97722601890564,None,pp_07,icub,clamp,2021_Dec_21_1625,exp,2021.2.3,60.13520120319035,
left,stop,1,0,1,0,1,1,7,2,480.4703860282898,None,1,1.215717077255249,480.4703860282898,None,481.8242230415344,None,482.8041579723358,483.12569999694824,482.8041579723358,483.12569999694824,481.8242230415344,None,481.8242230415344,None,481.8242230415344,None,600,700,1,True,513.2455825805664,-1.0,-1,487.2022521495819,None,pp_07,icub,clamp,2021_Dec_21_1625,exp,2021.2.3,60.13520120319035,
right,go,1,0,1,0,1,2,8,3,487.73328614234924,None,1,1.5828418731689453,487.73328614234924,None,489.45610904693604,None,490.42659401893616,490.7701280117035,490.42659401893616,490.7701280117035,489.45610904693604,None,489.45610904693604,None,489.45610904693604,None,-1,-1,1,True,548.9301681518555,738.9912605285645,right,492.62244415283203,None,pp_07,icub,clamp,2021_Dec_21_1625,exp,2021.2.3,60.13520120319035,
right,stop,1,0,1,0,1,3,9,5,493.1422369480133,None,1,0.3502209186553955,493.1422369480133,None,493.6205279827118,None,494.6438479423523,494.96889209747314,494.6438479423523,494.96889209747314,493.6205279827118,None,493.6205279827118,None,493.6205279827118,None,650,700,1,True,447.1285343170166,-1.0,-1,498.9792859554291,None,pp_07,icub,clamp,2021_Dec_21_1625,exp,2021.2.3,60.13520120319035,
right,stop,1,0,1,0,1,4,10,5,499.5103690624237,None,1,2.0648279190063477,499.5103690624237,None,501.6700439453125,None,502.6447739601135,502.99936294555664,502.6447739601135,502.99936294555664,501.6700439453125,None,501.6700439453125,None,501.6700439453125,None,650,750,0,True,429.81863021850586,798.454761505127,right,504.8044080734253,None,pp_07,icub,clamp,2021_Dec_21_1625,exp,2021.2.3,60.13520120319035,
left,go,1,0,1,0,1,5,11,0,505.3241970539093,None,1,2.7331809997558594,505.3241970539093,None,508.14795899391174,None,509.17139196395874,509.5239260196686,509.17139196395874,509.5239260196686,508.14795899391174,None,508.14795899391174,None,508.14795899391174,None,-1,-1,1,True,505.1395893096924,1160.5167388916016,left,511.70007610321045,None,pp_07,icub,clamp,2021_Dec_21_1625,exp,2021.2.3,60.13520120319035,
left,go,1,0,1,0,2,0,12,1,512.2207601070404,None,1,1.3232841491699219,512.2207601070404,None,513.6295161247253,None,514.6587641239166,514.9888980388641,514.6587641239166,514.9888980388641,513.6295161247253,None,513.6295161247253,None,513.6295161247253,None,-1,-1,1,True,497.90477752685547,905.9762954711914,left,516.9062221050262,None,pp_07,icub,clamp,2021_Dec_21_1625,exp,2021.2.3,60.13520120319035,
right,stop,1,0,1,0,2,1,13,5,517.4089810848236,None,1,0.8384690284729004,517.4089810848236,None,518.3226850032806,None,519.3307621479034,519.6562139987946,519.3307621479034,519.6562139987946,518.3226850032806,None,518.3226850032806,None,518.3226850032806,None,650,700,1,True,508.364200592041,-1.0,-1,523.7324559688568,None,pp_07,icub,clamp,2021_Dec_21_1625,exp,2021.2.3,60.13520120319035,
left,go,1,0,1,0,2,2,14,0,524.2651870250702,None,1,1.3087787628173828,524.2651870250702,None,525.6808829307556,None,526.6660900115967,527.0190770626068,526.6660900115967,527.0190770626068,525.6808829307556,None,525.6808829307556,None,525.6808829307556,None,-1,-1,1,True,382.0931911468506,705.519437789917,left,528.6642110347748,None,pp_07,icub,clamp,2021_Dec_21_1625,exp,2021.2.3,60.13520120319035,
left,go,1,0,1,0,2,3,15,0,529.1834599971771,None,1,0.3110198974609375,529.1834599971771,None,529.6026749610901,None,530.6216731071472,530.9764499664307,530.6216731071472,530.9764499664307,529.6026749610901,None,529.6026749610901,None,529.6026749610901,None,-1,-1,1,True,641.1824226379395,896.4328765869141,left,533.0412390232086,None,pp_07,icub,clamp,2021_Dec_21_1625,exp,2021.2.3,60.13520120319035,
right,stop,1,0,1,0,2,4,16,5,533.5575170516968,None,1,0.24581003189086914,533.5575170516968,None,533.9139440059662,None,534.9475929737091,535.2934300899506,534.9475929737091,535.2934300899506,533.9139440059662,None,533.9139440059662,None,533.9139440059662,None,650,750,0,True,522.2194194793701,824.7804641723633,right,537.1733679771423,None,pp_07,icub,clamp,2021_Dec_21_1625,exp,2021.2.3,60.13520120319035,
left,go,1,0,1,0,2,5,17,1,537.6931331157684,None,1,1.5283079147338867,537.6931331157684,None,539.3493130207062,None,540.3386430740356,540.6817600727081,540.3386430740356,540.6817600727081,539.3493130207062,None,539.3493130207062,None,539.3493130207062,None,-1,-1,1,True,453.7811279296875,989.922285079956,left,542.6885509490967,None,pp_07,icub,clamp,2021_Dec_21_1625,exp,2021.2.3,60.13520120319035,
left,stop,1,0,1,0,3,0,18,2,543.205924987793,None,1,0.5254299640655518,543.205924987793,None,543.8116900920868,None,544.8366589546204,545.1775281429291,544.8366589546204,545.1775281429291,543.8116900920868,None,543.8116900920868,None,543.8116900920868,None,650,700,1,True,555.6392669677734,-1.0,-1,549.2500529289246,None,pp_07,icub,clamp,2021_Dec_21_1625,exp,2021.2.3,60.13520120319035,
left,go,1,0,1,0,3,1,19,0,549.781553030014,None,1,3.630347967147827,549.781553030014,None,553.5465321540833,None,554.5277750492096,554.8894081115723,554.5277750492096,554.8894081115723,553.5465321540833,None,553.5465321540833,None,553.5465321540833,None,-1,-1,1,True,291.8839454650879,848.7532138824463,left,556.5619299411774,None,pp_07,icub,clamp,2021_Dec_21_1625,exp,2021.2.3,60.13520120319035,
left,stop,1,0,1,0,3,2,20,2,557.0676839351654,None,1,0.5899069309234619,557.0676839351654,None,557.7331590652466,None,558.7641839981079,559.1150071620941,558.7641839981079,559.1150071620941,557.7331590652466,None,557.7331590652466,None,557.7331590652466,None,700,700,0,True,286.42940521240234,796.8831062316895,left,560.6939980983734,None,pp_07,icub,clamp,2021_Dec_21_1625,exp,2021.2.3,60.13520120319035,
left,go,1,0,1,0,3,3,21,1,561.2089309692383,None,1,2.7386388778686523,561.2089309692383,None,564.0384640693665,None,565.0648300647736,565.4143650531769,565.0648300647736,565.4143650531769,564.0384640693665,None,564.0384640693665,None,564.0384640693665,None,-1,-1,1,True,450.74939727783203,1026.421308517456,left,567.4091911315918,None,pp_07,icub,clamp,2021_Dec_21_1625,exp,2021.2.3,60.13520120319035,
right,stop,1,0,1,0,3,4,22,5,567.919340133667,None,1,0.8121988773345947,567.919340133667,None,568.8325591087341,None,569.8352470397949,570.1966459751129,569.8352470397949,570.1966459751129,568.8325591087341,None,568.8325591087341,None,568.8325591087341,None,650,700,1,True,20.5686092376709,-1.0,-1,573.7484991550446,None,pp_07,icub,clamp,2021_Dec_21_1625,exp,2021.2.3,60.13520120319035,
right,go,1,0,1,0,3,5,23,3,574.2802400588989,None,1,1.4185359477996826,574.2802400588989,None,575.8198299407959,None,576.8027989864349,577.1515290737152,576.8027989864349,577.1515290737152,575.8198299407959,None,575.8198299407959,None,575.8198299407959,None,-1,-1,1,True,308.7620735168457,1149.6617794036865,right,579.1786639690399,None,pp_07,icub,clamp,2021_Dec_21_1625,exp,2021.2.3,60.13520120319035,
right,go,1,0,1,0,4,0,24,4,579.6960639953613,None,1,0.8856339454650879,579.6960639953613,None,580.6670520305634,None,581.6993670463562,582.0659019947052,581.6993670463562,582.0659019947052,580.6670520305634,None,580.6670520305634,None,580.6670520305634,None,-1,-1,1,True,579.592227935791,1180.1438331604004,right,584.3036291599274,None,pp_07,icub,clamp,2021_Dec_21_1625,exp,2021.2.3,60.13520120319035,
left,go,1,0,1,0,4,1,25,0,584.8235411643982,None,1,0.35300397872924805,584.8235411643982,None,585.3045620918274,None,586.3171350955963,586.6785659790039,586.3171350955963,586.6785659790039,585.3045620918274,None,585.3045620918274,None,585.3045620918274,None,-1,-1,1,True,592.8206443786621,959.1283798217773,left,588.7617800235748,None,pp_07,icub,clamp,2021_Dec_21_1625,exp,2021.2.3,60.13520120319035,
right,go,1,0,1,0,4,2,26,4,589.2615959644318,None,1,0.6447358131408691,589.2615959644318,None,589.9916839599609,None,590.9871821403503,591.3378911018372,590.9871821403503,591.3378911018372,589.9916839599609,None,589.9916839599609,None,589.9916839599609,None,-1,-1,1,True,501.4841556549072,1147.7165222167969,right,593.5421230792999,None,pp_07,icub,clamp,2021_Dec_21_1625,exp,2021.2.3,60.13520120319035,
right,go,1,0,1,0,4,3,27,4,594.0514800548553,None,1,0.8370711803436279,594.0514800548553,None,594.9688940048218,None,595.9745860099792,596.3102810382843,595.9745860099792,596.3102810382843,594.9688940048218,None,594.9688940048218,None,594.9688940048218,None,-1,-1,1,True,437.241792678833,1415.9469604492188,right,598.7238309383392,None,pp_07,icub,clamp,2021_Dec_21_1625,exp,2021.2.3,60.13520120319035,
left,go,1,0,1,0,4,4,28,0,599.2346251010895,None,1,0.4529690742492676,599.2346251010895,None,599.7787871360779,None,600.8019330501556,601.1545810699463,600.8019330501556,601.1545810699463,599.7787871360779,None,599.7787871360779,None,599.7787871360779,None,-1,-1,1,True,461.2100124359131,977.7953624725342,left,603.1019811630249,None,pp_07,icub,clamp,2021_Dec_21_1625,exp,2021.2.3,60.13520120319035,
right,go,1,0,1,0,4,5,29,4,603.6155359745026,None,1,0.44681382179260254,603.6155359745026,None,604.157329082489,None,605.1755440235138,605.5289530754089,605.1755440235138,605.5289530754089,604.157329082489,None,604.157329082489,None,604.157329082489,None,-1,-1,1,True,747.5295066833496,1185.286521911621,right,607.9749410152435,None,pp_07,icub,clamp,2021_Dec_21_1625,exp,2021.2.3,60.13520120319035,
left,stop,1,0,1,0,5,0,30,2,608.4855511188507,None,1,0.805804967880249,608.4855511188507,None,609.3980519771576,None,610.3929491043091,610.7509219646454,610.3929491043091,610.7509219646454,609.3980519771576,None,609.3980519771576,None,609.3980519771576,None,650,750,1,True,346.58265113830566,-1.0,-1,614.6297900676727,None,pp_07,icub,clamp,2021_Dec_21_1625,exp,2021.2.3,60.13520120319035,
left,go,1,0,1,0,5,1,31,0,615.1606709957123,None,1,0.7280089855194092,615.1606709957123,None,616.0191280841827,None,617.0198309421539,617.3550429344177,617.0198309421539,617.3550429344177,616.0191280841827,None,616.0191280841827,None,616.0191280841827,None,-1,-1,1,True,672.6982593536377,787.8456115722656,left,619.3831789493561,None,pp_07,icub,clamp,2021_Dec_21_1625,exp,2021.2.3,60.13520120319035,
left,go,1,0,1,0,5,2,32,0,619.9169471263885,None,1,0.3757059574127197,619.9169471263885,None,620.3995039463043,None,621.3930790424347,621.7591941356659,621.3930790424347,621.7591941356659,620.3995039463043,None,620.3995039463043,None,620.3995039463043,None,-1,-1,1,True,357.13863372802734,1136.9960308074951,left,623.7841291427612,None,pp_07,icub,clamp,2021_Dec_21_1625,exp,2021.2.3,60.13520120319035,
right,go,1,0,1,0,5,3,33,3,624.2847361564636,None,1,0.2335970401763916,624.2847361564636,None,624.6372060775757,None,625.667741060257,625.9947259426117,625.667741060257,625.9947259426117,624.6372060775757,None,624.6372060775757,None,624.6372060775757,None,-1,-1,1,True,446.1710453033447,1060.1675510406494,right,628.0275120735168,None,pp_07,icub,clamp,2021_Dec_21_1625,exp,2021.2.3,60.13520120319035,
left,go,1,0,1,0,5,4,34,1,628.5438990592957,None,1,0.37622690200805664,628.5438990592957,None,629.0243420600891,None,630.0583610534668,630.4152579307556,630.0583610534668,630.4152579307556,629.0243420600891,None,629.0243420600891,None,629.0243420600891,None,-1,-1,1,True,543.3852672576904,1117.9919242858887,left,632.5680890083313,None,pp_07,icub,clamp,2021_Dec_21_1625,exp,2021.2.3,60.13520120319035,
right,stop,1,0,1,0,5,5,35,5,633.0726449489594,None,1,0.4860808849334717,633.0726449489594,None,633.6777861118317,None,634.6886310577393,635.0411839485168,634.6886310577393,635.0411839485168,633.6777861118317,None,633.6777861118317,None,633.6777861118317,None,700,750,1,True,445.92833518981934,-1.0,-1,639.0167620182037,None,pp_07,icub,clamp,2021_Dec_21_1625,exp,2021.2.3,60.13520120319035,
left,go,1,0,1,0,6,0,36,1,639.5474791526794,None,1,0.8081490993499756,639.5474791526794,None,640.4698560237885,None,641.4498910903931,641.7904851436615,641.4498910903931,641.7904851436615,640.4698560237885,None,640.4698560237885,None,640.4698560237885,None,-1,-1,1,True,369.7190284729004,1070.1923370361328,left,643.8067140579224,None,pp_07,icub,clamp,2021_Dec_21_1625,exp,2021.2.3,60.13520120319035,
left,stop,1,0,1,0,6,1,37,2,644.315192937851,None,1,0.21499204635620117,644.315192937851,None,644.6108181476593,None,645.6395800113678,645.9857261180878,645.6395800113678,645.9857261180878,644.6108181476593,None,644.6108181476593,None,644.6108181476593,None,700,800,1,True,557.1255683898926,-1.0,-1,650.0662610530853,None,pp_07,icub,clamp,2021_Dec_21_1625,exp,2021.2.3,60.13520120319035,
right,go,1,0,1,0,6,2,38,3,650.5982069969177,None,1,0.5073671340942383,650.5982069969177,None,651.2109620571136,None,652.1853041648865,652.5322749614716,652.1853041648865,652.5322749614716,651.2109620571136,None,651.2109620571136,None,651.2109620571136,None,-1,-1,1,True,449.6128559112549,1071.5737342834473,right,654.6257650852203,None,pp_07,icub,clamp,2021_Dec_21_1625,exp,2021.2.3,60.13520120319035,
left,go,1,0,1,0,6,3,39,0,655.1617760658264,None,1,0.3235290050506592,655.1617760658264,None,655.579108953476,None,656.5828859806061,656.9352691173553,656.5828859806061,656.9352691173553,655.579108953476,None,655.579108953476,None,655.579108953476,None,-1,-1,1,True,438.80295753479004,999.9072551727295,left,658.904806137085,None,pp_07,icub,clamp,2021_Dec_21_1625,exp,2021.2.3,60.13520120319035,
right,go,1,0,1,0,6,4,40,4,659.4152290821075,None,1,0.270855188369751,659.4152290821075,None,659.7717020511627,None,660.789715051651,661.1401751041412,660.789715051651,661.1401751041412,659.7717020511627,None,659.7717020511627,None,659.7717020511627,None,-1,-1,1,True,371.54603004455566,987.1580600738525,right,663.0196900367737,None,pp_07,icub,clamp,2021_Dec_21_1625,exp,2021.2.3,60.13520120319035,
right,go,1,0,1,0,6,5,41,3,663.5277450084686,None,1,0.16022992134094238,663.5277450084686,None,663.763631105423,None,664.7576100826263,665.1126430034637,664.7576100826263,665.1126430034637,663.763631105423,None,663.763631105423,None,663.763631105423,None,-1,-1,1,True,465.09599685668945,938.7118816375732,right,667.0357241630554,None,pp_07,icub,clamp,2021_Dec_21_1625,exp,2021.2.3,60.13520120319035,
right,go,1,0,1,0,7,0,42,3,667.5502650737762,None,1,0.3655359745025635,667.5502650737762,None,668.0293090343475,None,669.0303399562836,669.3793950080872,669.0303399562836,669.3793950080872,668.0293090343475,None,668.0293090343475,None,668.0293090343475,None,-1,-1,1,True,638.303279876709,828.1490802764893,right,671.4019870758057,None,pp_07,icub,clamp,2021_Dec_21_1625,exp,2021.2.3,60.13520120319035,
left,stop,1,0,1,0,7,1,43,2,671.9111161231995,None,1,0.20015788078308105,671.9111161231995,None,672.2071850299835,None,673.2380881309509,673.5861461162567,673.2380881309509,673.5861461162567,672.2071850299835,None,672.2071850299835,None,672.2071850299835,None,750,800,0,True,860.6345653533936,859.9181175231934,left,675.8323290348053,None,pp_07,icub,clamp,2021_Dec_21_1625,exp,2021.2.3,60.13520120319035,
right,go,1,0,1,0,7,2,44,4,676.3485119342804,None,1,2.725411891937256,676.3485119342804,None,679.1810541152954,None,680.1851201057434,680.5401010513306,680.1851201057434,680.5401010513306,679.1810541152954,None,679.1810541152954,None,679.1810541152954,None,-1,-1,1,True,326.2341022491455,1044.440507888794,right,682.4298169612885,None,pp_07,icub,clamp,2021_Dec_21_1625,exp,2021.2.3,60.13520120319035,
right,go,1,0,1,0,7,3,45,4,682.9497389793396,None,1,1.1809959411621094,682.9497389793396,None,684.2377460002899,None,685.269788980484,685.6172521114349,685.269788980484,685.6172521114349,684.2377460002899,None,684.2377460002899,None,684.2377460002899,None,-1,-1,1,True,302.9742240905762,1340.3840065002441,right,687.7875370979309,None,pp_07,icub,clamp,2021_Dec_21_1625,exp,2021.2.3,60.13520120319035,
right,stop,1,0,1,0,7,4,46,5,688.2947850227356,None,1,0.7840940952301025,688.2947850227356,None,689.2073149681091,None,690.2334711551666,690.5821390151978,690.2334711551666,690.5821390151978,689.2073149681091,None,689.2073149681091,None,689.2073149681091,None,700,800,1,True,612.9608154296875,-1.0,-1,694.705883026123,None,pp_07,icub,clamp,2021_Dec_21_1625,exp,2021.2.3,60.13520120319035,
left,go,1,0,1,0,7,5,47,1,695.2383260726929,None,1,2.133219003677368,695.2383260726929,None,697.4564690589905,None,698.4401340484619,698.8007271289825,698.4401340484619,698.8007271289825,697.4564690589905,None,697.4564690589905,None,697.4564690589905,None,-1,-1,1,True,1071.27046585083,878.9029121398926,left,701.2828299999237,None,pp_07,icub,clamp,2021_Dec_21_1625,exp,2021.2.3,60.13520120319035,
left,stop,1,0,1,0,8,0,48,2,701.8154671192169,None,1,0.5255651473999023,701.8154671192169,None,702.4215919971466,None,703.4450991153717,703.8039879798889,703.4450991153717,703.8039879798889,702.4215919971466,None,702.4215919971466,None,702.4215919971466,None,700,850,1,True,371.5240955352783,-1.0,-1,707.6862399578094,None,pp_07,icub,clamp,2021_Dec_21_1625,exp,2021.2.3,60.13520120319035,
right,go,1,0,1,0,8,1,49,3,708.2175531387329,None,1,1.2658679485321045,708.2175531387329,None,709.5734939575195,None,710.557235956192,710.8892560005188,710.557235956192,710.8892560005188,709.5734939575195,None,709.5734939575195,None,709.5734939575195,None,-1,-1,1,True,326.29919052124023,1043.3833599090576,right,712.835727930069,None,pp_07,icub,clamp,2021_Dec_21_1625,exp,2021.2.3,60.13520120319035,
right,go,1,0,1,0,8,2,50,3,713.3715300559998,None,1,0.36026906967163086,713.3715300559998,None,713.8516240119934,None,714.8655159473419,715.226007938385,714.8655159473419,715.226007938385,713.8516240119934,None,713.8516240119934,None,713.8516240119934,None,-1,-1,1,True,629.4703483581543,767.4140930175781,right,717.1550271511078,None,pp_07,icub,clamp,2021_Dec_21_1625,exp,2021.2.3,60.13520120319035,
left,go,1,0,1,0,8,3,51,1,717.6756880283356,None,1,0.32848286628723145,717.6756880283356,None,718.0906231403351,None,719.0960130691528,719.4434809684753,719.0960130691528,719.4434809684753,718.0906231403351,None,718.0906231403351,None,718.0906231403351,None,-1,-1,1,True,308.90440940856934,895.3559398651123,left,721.1706600189209,None,pp_07,icub,clamp,2021_Dec_21_1625,exp,2021.2.3,60.13520120319035,
right,go,1,0,1,0,8,4,52,3,721.6844501495361,None,1,0.3546020984649658,721.6844501495361,None,722.1630489826202,None,723.1911511421204,723.53843998909,723.1911511421204,723.53843998909,722.1630489826202,None,722.1630489826202,None,722.1630489826202,None,-1,-1,1,True,329.4398784637451,1025.9299278259277,right,725.4145979881287,None,pp_07,icub,clamp,2021_Dec_21_1625,exp,2021.2.3,60.13520120319035,
left,go,1,0,1,0,8,5,53,1,725.9281170368195,None,1,0.2506229877471924,725.9281170368195,None,726.2850301265717,None,727.3113241195679,727.6499950885773,727.3113241195679,727.6499950885773,726.2850301265717,None,726.2850301265717,None,726.2850301265717,None,-1,-1,1,True,122.54738807678223,931.3275814056396,left,729.2323350906372,None,pp_07,icub,clamp,2021_Dec_21_1625,exp,2021.2.3,60.13520120319035,
left,go,1,0,1,0,9,0,54,1,729.7491600513458,None,1,0.15966510772705078,729.7491600513458,None,730.0412900447845,None,731.0724201202393,731.4157650470734,731.0724201202393,731.4157650470734,730.0412900447845,None,730.0412900447845,None,730.0412900447845,None,-1,-1,1,True,437.99495697021484,738.4932041168213,left,733.1204979419708,None,pp_07,icub,clamp,2021_Dec_21_1625,exp,2021.2.3,60.13520120319035,
left,stop,1,0,1,0,9,1,55,2,733.6303050518036,None,1,0.17966413497924805,733.6303050518036,None,733.9266350269318,None,734.9627101421356,735.316967010498,734.9627101421356,735.316967010498,733.9266350269318,None,733.9266350269318,None,733.9266350269318,None,750,850,0,True,497.9889392852783,857.3949337005615,left,737.1592900753021,None,pp_07,icub,clamp,2021_Dec_21_1625,exp,2021.2.3,60.13520120319035,
right,go,1,0,1,0,9,2,56,4,737.6804511547089,None,1,3.2791330814361572,737.6804511547089,None,741.0699651241302,None,742.1042060852051,742.4507930278778,742.1042060852051,742.4507930278778,741.0699651241302,None,741.0699651241302,None,741.0699651241302,None,-1,-1,1,True,573.4844207763672,968.3771133422852,right,744.5153040885925,None,pp_07,icub,clamp,2021_Dec_21_1625,exp,2021.2.3,60.13520120319035,
right,stop,1,0,1,0,9,3,57,5,745.0134429931641,None,1,0.2533731460571289,745.0134429931641,None,745.3709759712219,None,746.3678770065308,746.7357370853424,746.3678770065308,746.7357370853424,745.3709759712219,None,745.3709759712219,None,745.3709759712219,None,700,850,0,True,496.95324897766113,889.4319534301758,right,748.6547830104828,None,pp_07,icub,clamp,2021_Dec_21_1625,exp,2021.2.3,60.13520120319035,
left,stop,1,0,1,0,9,4,58,2,749.1542861461639,None,1,1.6522350311279297,749.1542861461639,None,750.931282043457,None,751.9621901512146,752.2918319702148,751.9621901512146,752.2918319702148,750.931282043457,None,750.931282043457,None,750.931282043457,None,700,800,1,True,540.6105518341064,-1.0,-1,756.3730020523071,None,pp_07,icub,clamp,2021_Dec_21_1625,exp,2021.2.3,60.13520120319035,
right,go,1,0,1,0,9,5,59,3,756.8662710189819,None,1,1.088925838470459,756.8662710189819,None,758.0359120368958,None,759.0187079906464,759.3574640750885,759.0187079906464,759.3574640750885,758.0359120368958,None,758.0359120368958,None,758.0359120368958,None,-1,-1,1,True,870.5055713653564,941.7593479156494,right,761.7418880462646,None,pp_07,icub,clamp,2021_Dec_21_1625,exp,2021.2.3,60.13520120319035,
right,stop,1,0,1,0,10,0,60,5,762.2629790306091,None,1,0.2727980613708496,762.2629790306091,None,762.6210861206055,None,763.6291289329529,763.9894001483917,763.6291289329529,763.9894001483917,762.6210861206055,None,762.6210861206055,None,762.6210861206055,None,750,800,1,True,393.2487964630127,-1.0,-1,767.9074821472168,None,pp_07,icub,clamp,2021_Dec_21_1625,exp,2021.2.3,60.13520120319035,
left,go,1,0,1,0,10,1,61,0,768.4406499862671,None,1,1.4035100936889648,768.4406499862671,None,769.9806389808655,None,770.9916441440582,771.3199460506439,770.9916441440582,771.3199460506439,769.9806389808655,None,769.9806389808655,None,769.9806389808655,None,-1,-1,1,True,401.4279842376709,897.552490234375,left,773.1433820724487,None,pp_07,icub,clamp,2021_Dec_21_1625,exp,2021.2.3,60.13520120319035,
left,stop,1,0,1,0,10,2,62,2,773.6594331264496,None,1,0.35584187507629395,773.6594331264496,None,774.1122879981995,None,775.1258549690247,775.4950239658356,775.1258549690247,775.4950239658356,774.1122879981995,None,774.1122879981995,None,774.1122879981995,None,750,850,1,True,328.90820503234863,-1.0,-1,779.3543920516968,None,pp_07,icub,clamp,2021_Dec_21_1625,exp,2021.2.3,60.13520120319035,
right,go,1,0,1,0,10,3,63,4,779.8868820667267,None,1,0.49531102180480957,779.8868820667267,None,780.4985330104828,None,781.4828960895538,781.8365790843964,781.4828960895538,781.8365790843964,780.4985330104828,None,780.4985330104828,None,780.4985330104828,None,-1,-1,1,True,393.5551643371582,1366.7161464691162,right,784.1258721351624,None,pp_07,icub,clamp,2021_Dec_21_1625,exp,2021.2.3,60.13520120319035,
left,go,1,0,1,0,10,4,64,1,784.6504790782928,None,1,0.3351149559020996,784.6504790782928,None,785.0711390972137,None,786.0838041305542,786.4502511024475,786.0838041305542,786.4502511024475,785.0711390972137,None,785.0711390972137,None,785.0711390972137,None,-1,-1,1,True,418.00737380981445,874.575138092041,left,788.2533071041107,None,pp_07,icub,clamp,2021_Dec_21_1625,exp,2021.2.3,60.13520120319035,
right,go,1,0,1,0,10,5,65,4,788.7660660743713,None,1,0.1938011646270752,788.7660660743713,None,789.0607600212097,None,790.0570600032806,790.3821351528168,790.0570600032806,790.3821351528168,789.0607600212097,None,789.0607600212097,None,789.0607600212097,None,-1,-1,1,True,413.50626945495605,1187.6695156097412,right,792.5606479644775,None,pp_07,icub,clamp,2021_Dec_21_1625,exp,2021.2.3,60.13520120319035,
left,go,1,0,1,0,11,0,66,0,793.08052110672,None,1,0.24522995948791504,793.08052110672,None,793.4344699382782,None,794.4360589981079,794.8031840324402,794.4360589981079,794.8031840324402,793.4344699382782,None,793.4344699382782,None,793.4344699382782,None,-1,-1,1,True,357.3341369628906,698.9231109619141,left,796.3839750289917,None,pp_07,icub,clamp,2021_Dec_21_1625,exp,2021.2.3,60.13520120319035,
left,go,1,0,1,0,11,1,67,1,796.9179241657257,None,1,0.25159502029418945,796.9179241657257,None,797.2766361236572,None,798.2891609668732,798.653242111206,798.2891609668732,798.653242111206,797.2766361236572,None,797.2766361236572,None,797.2766361236572,None,-1,-1,1,True,519.1395282745361,750.4782676696777,left,800.4409260749817,None,pp_07,icub,clamp,2021_Dec_21_1625,exp,2021.2.3,60.13520120319035,
left,stop,1,0,1,0,11,2,68,2,800.9469621181488,None,1,0.2525370121002197,800.9469621181488,None,801.304769039154,None,802.3114380836487,802.658753156662,802.3114380836487,802.658753156662,801.304769039154,None,801.304769039154,None,801.304769039154,None,800,850,0,True,285.05539894104004,884.1376304626465,left,804.3574011325836,None,pp_07,icub,clamp,2021_Dec_21_1625,exp,2021.2.3,60.13520120319035,
left,stop,1,0,1,0,11,3,69,2,804.8742301464081,None,1,2.035227060317993,804.8742301464081,None,807.0254650115967,None,808.0276820659637,808.3660140037537,808.0276820659637,808.3660140037537,807.0254650115967,None,807.0254650115967,None,807.0254650115967,None,750,850,0,True,272.4027633666992,852.6051044464111,left,810.035887002945,None,pp_07,icub,clamp,2021_Dec_21_1625,exp,2021.2.3,60.13520120319035,
right,go,1,0,1,0,11,4,70,3,810.5446910858154,None,1,1.2389700412750244,810.5446910858154,None,811.8924281597137,None,812.9250071048737,813.2778661251068,812.9250071048737,813.2778661251068,811.8924281597137,None,811.8924281597137,None,811.8924281597137,None,-1,-1,1,True,1144.6044445037842,793.403148651123,right,815.7126340866089,None,pp_07,icub,clamp,2021_Dec_21_1625,exp,2021.2.3,60.13520120319035,
right,stop,1,0,1,0,11,5,71,5,816.2293820381165,None,1,0.38211488723754883,816.2293820381165,None,816.7126989364624,None,817.7453620433807,818.1024100780487,817.7453620433807,818.1024100780487,816.7126989364624,None,816.7126989364624,None,816.7126989364624,None,700,850,0,True,383.4829330444336,869.2755699157715,right,819.850811958313,None,pp_07,icub,clamp,2021_Dec_21_1625,exp,2021.2.3,60.13520120319035,
left,go,1,0,1,0,12,0,72,0,820.3587579727173,None,1,0.4807469844818115,820.3587579727173,None,820.9623160362244,None,821.9589841365814,822.2995569705963,821.9589841365814,822.2995569705963,820.9623160362244,None,820.9623160362244,None,820.9623160362244,None,-1,-1,1,True,250.30231475830078,1172.3458766937256,left,824.2985789775848,None,pp_07,icub,clamp,2021_Dec_21_1625,exp,2021.2.3,60.13520120319035,
left,go,1,0,1,0,12,1,73,0,824.806321144104,None,1,0.2900240421295166,824.806321144104,None,825.2245669364929,None,826.2445750236511,826.6035370826721,826.2445750236511,826.6035370826721,825.2245669364929,None,825.2245669364929,None,825.2245669364929,None,-1,-1,1,True,304.66699600219727,1004.7450065612793,left,828.4272990226746,None,pp_07,icub,clamp,2021_Dec_21_1625,exp,2021.2.3,60.13520120319035,
right,go,1,0,1,0,12,2,74,4,828.9638459682465,None,1,0.27298498153686523,828.9638459682465,None,829.3226029872894,None,830.352236032486,830.7050671577454,830.352236032486,830.7050671577454,829.3226029872894,None,829.3226029872894,None,829.3226029872894,None,-1,-1,1,True,418.35951805114746,813.1163120269775,right,832.4482040405273,None,pp_07,icub,clamp,2021_Dec_21_1625,exp,2021.2.3,60.13520120319035,
right,stop,1,0,1,0,12,3,75,5,832.983608007431,None,1,0.7579779624938965,832.983608007431,None,833.8370850086212,None,834.8319020271301,835.1875360012054,834.8319020271301,835.1875360012054,833.8370850086212,None,833.8370850086212,None,833.8370850086212,None,700,800,0,True,945.429801940918,825.2875804901123,right,837.4959480762482,None,pp_07,icub,clamp,2021_Dec_21_1625,exp,2021.2.3,60.13520120319035,
right,go,1,0,1,0,12,4,76,3,838.0149590969086,None,1,6.148485898971558,838.0149590969086,None,844.2440431118011,None,845.2777810096741,845.6362509727478,845.2777810096741,845.6362509727478,844.2440431118011,None,844.2440431118011,None,844.2440431118011,None,-1,-1,1,True,508.27956199645996,741.910457611084,right,847.3763670921326,None,pp_07,icub,clamp,2021_Dec_21_1625,exp,2021.2.3,60.13520120319035,
right,stop,1,0,1,0,12,5,77,5,847.8866131305695,None,1,0.6324529647827148,847.8866131305695,None,848.6122980117798,None,849.6170091629028,849.975583076477,849.6170091629028,849.975583076477,848.6122980117798,None,848.6122980117798,None,848.6122980117798,None,700,750,0,True,502.57325172424316,543.3623790740967,right,851.5503301620483,None,pp_07,icub,clamp,2021_Dec_21_1625,exp,2021.2.3,60.13520120319035,
right,stop,2,0,2,0,0,0,0,5,903.1254620552063,None,1,8.447532176971436,903.1254620552063,None,911.7013211250305,None,912.7070109844208,913.0646419525146,912.7070109844208,913.0646419525146,911.7013211250305,None,911.7013211250305,None,911.7013211250305,None,700,700,0,True,430.131196975708,724.9755859375,right,914.7516009807587,None,pp_07,icub,clamp,2021_Dec_21_1625,exp,2021.2.3,60.13520120319035,
left,go,2,0,2,0,0,1,1,0,915.2700259685516,None,1,2.2586669921875,915.2700259685516,None,917.6090519428253,None,918.6341891288757,918.985543012619,918.6341891288757,918.985543012619,917.6090519428253,None,917.6090519428253,None,917.6090519428253,None,-1,-1,1,True,398.8656997680664,495.6052303314209,left,920.4048340320587,None,pp_07,icub,clamp,2021_Dec_21_1625,exp,2021.2.3,60.13520120319035,
left,stop,2,0,2,0,0,2,2,2,920.9102301597595,None,1,0.04634404182434082,920.9102301597595,None,921.0802330970764,None,922.0888991355896,922.4472939968109,922.0888991355896,922.4472939968109,921.0802330970764,None,921.0802330970764,None,921.0802330970764,None,700,650,0,True,267.1828269958496,444.9024200439453,left,923.6974091529846,None,pp_07,icub,clamp,2021_Dec_21_1625,exp,2021.2.3,60.13520120319035,
left,go,2,0,2,0,0,3,3,0,924.2133030891418,None,1,0.1476430892944336,924.2133030891418,None,924.446455001831,None,925.443943977356,925.7832939624786,925.443943977356,925.7832939624786,924.446455001831,None,924.446455001831,None,924.446455001831,None,,,0,False,-1.0,-1.0,-1,926.2220630645752,None,pp_07,icub,clamp,2021_Dec_21_1625,exp,2021.2.3,60.13520120319035,
left,go,2,0,2,0,0,4,4,0,926.755056142807,None,1,0.4941089153289795,926.755056142807,None,927.3445191383362,None,928.3389000892639,928.6977090835571,928.3389000892639,928.6977090835571,927.3445191383362,None,927.3445191383362,None,927.3445191383362,None,,,0,False,-1.0,-1.0,-1,929.2147660255432,None,pp_07,icub,clamp,2021_Dec_21_1625,exp,2021.2.3,60.13520120319035,
left,go,2,0,2,0,0,5,5,0,929.7470519542694,None,1,1.3791038990020752,929.7470519542694,None,931.2494659423828,None,932.2648849487305,932.6167521476746,932.2648849487305,932.6167521476746,931.2494659423828,None,931.2494659423828,None,931.2494659423828,None,-1,-1,1,True,459.667444229126,562.2479915618896,left,934.1739001274109,None,pp_07,icub,clamp,2021_Dec_21_1625,exp,2021.2.3,60.13520120319035,
right,stop,2,0,2,0,1,0,6,5,934.6771280765533,None,1,0.03888392448425293,934.6771280765533,None,934.8439490795135,None,935.8635759353638,936.2179231643677,935.8635759353638,936.2179231643677,934.8439490795135,None,934.8439490795135,None,934.8439490795135,None,650,650,0,True,473.5085964202881,694.7026252746582,right,937.9213931560516,None,pp_07,icub,clamp,2021_Dec_21_1625,exp,2021.2.3,60.13520120319035,
left,stop,2,0,2,0,1,1,7,2,938.4389290809631,None,1,0.27722597122192383,938.4389290809631,None,938.7967159748077,None,939.8271601200104,940.1907091140747,939.8271601200104,940.1907091140747,938.7967159748077,None,938.7967159748077,None,938.7967159748077,None,650,600,1,True,20.633459091186523,-1.0,-1,943.7046010494232,None,pp_07,icub,clamp,2021_Dec_21_1625,exp,2021.2.3,60.13520120319035,
left,stop,2,0,2,0,1,2,8,2,944.1978960037231,None,1,0.6326320171356201,944.1978960037231,None,944.9341990947723,None,945.9117181301117,946.2635910511017,945.9117181301117,946.2635910511017,944.9341990947723,None,944.9341990947723,None,944.9341990947723,None,700,600,0,True,338.2749557495117,796.2193489074707,left,947.9708230495453,None,pp_07,icub,clamp,2021_Dec_21_1625,exp,2021.2.3,60.13520120319035,
left,stop,2,0,2,0,1,3,9,2,948.4877610206604,None,1,0.6566638946533203,948.4877610206604,None,949.2771430015564,None,950.2719030380249,950.6223149299622,950.2719030380249,950.6223149299622,949.2771430015564,None,949.2771430015564,None,949.2771430015564,None,650,600,0,True,129.19044494628906,670.2606678009033,left,951.9817430973053,None,pp_07,icub,clamp,2021_Dec_21_1625,exp,2021.2.3,60.13520120319035,
right,go,2,0,2,0,1,4,10,3,952.5157060623169,None,1,0.42139506340026855,952.5157060623169,None,953.0569839477539,None,954.0659320354462,954.4161491394043,954.0659320354462,954.4161491394043,953.0569839477539,None,953.0569839477539,None,953.0569839477539,None,-1,-1,1,True,505.60545921325684,752.0060539245605,right,956.1955940723419,None,pp_07,icub,clamp,2021_Dec_21_1625,exp,2021.2.3,60.13520120319035,
right,go,2,0,2,0,1,5,11,4,956.711531162262,None,1,0.2660529613494873,956.711531162262,None,957.0682430267334,None,958.0991849899292,958.4535329341888,958.0991849899292,958.4535329341888,957.0682430267334,None,957.0682430267334,None,957.0682430267334,None,-1,-1,1,True,379.2455196380615,602.1125316619873,right,959.9273619651794,None,pp_07,icub,clamp,2021_Dec_21_1625,exp,2021.2.3,60.13520120319035,
right,stop,2,0,2,0,2,0,12,5,960.4292240142822,None,1,0.2549610137939453,960.4292240142822,None,960.7854540348053,None,961.7962040901184,962.1355381011963,961.7962040901184,962.1355381011963,960.7854540348053,None,960.7854540348053,None,960.7854540348053,None,600,600,0,True,494.94457244873047,672.3997592926025,right,963.8557119369507,None,pp_07,icub,clamp,2021_Dec_21_1625,exp,2021.2.3,60.13520120319035,
left,go,2,0,2,0,2,1,13,1,964.3703811168671,None,1,0.333251953125,964.3703811168671,None,964.7899091243744,None,965.7981450557709,966.1500070095062,965.7981450557709,966.1500070095062,964.7899091243744,None,964.7899091243744,None,964.7899091243744,None,-1,-1,1,True,350.21090507507324,721.8971252441406,left,967.7544701099396,None,pp_07,icub,clamp,2021_Dec_21_1625,exp,2021.2.3,60.13520120319035,
left,go,2,0,2,0,2,2,14,1,968.251718044281,None,1,0.8842999935150146,968.251718044281,None,969.2693159580231,None,970.262433052063,970.6150360107422,970.262433052063,970.6150360107422,969.2693159580231,None,969.2693159580231,None,969.2693159580231,None,-1,-1,1,True,421.3380813598633,869.0862655639648,left,972.4717280864716,None,pp_07,icub,clamp,2021_Dec_21_1625,exp,2021.2.3,60.13520120319035,
right,go,2,0,2,0,2,3,15,3,972.9795920848846,None,1,0.1781458854675293,972.9795920848846,None,973.2549390792847,None,974.2493369579315,974.6161830425262,974.2493369579315,974.6161830425262,973.2549390792847,None,973.2549390792847,None,973.2549390792847,None,-1,-1,1,True,608.936071395874,901.3500213623047,right,976.6570429801941,None,pp_07,icub,clamp,2021_Dec_21_1625,exp,2021.2.3,60.13520120319035,
left,go,2,0,2,0,2,4,16,1,977.1567831039429,None,1,0.06063389778137207,977.1567831039429,None,977.3276391029358,None,978.3548951148987,978.6929240226746,978.3548951148987,978.6929240226746,977.3276391029358,None,977.3276391029358,None,977.3276391029358,None,-1,-1,1,True,561.4542961120605,577.5678157806396,left,980.3651859760284,None,pp_07,icub,clamp,2021_Dec_21_1625,exp,2021.2.3,60.13520120319035,
right,go,2,0,2,0,2,5,17,4,980.8684420585632,None,1,0.07893800735473633,980.8684420585632,None,981.0431809425354,None,982.0363359451294,982.3942980766296,982.0363359451294,982.3942980766296,981.0431809425354,None,981.0431809425354,None,981.0431809425354,None,-1,-1,1,True,617.3965930938721,703.0830383300781,right,984.2466299533844,None,pp_07,icub,clamp,2021_Dec_21_1625,exp,2021.2.3,60.13520120319035,
left,stop,2,0,2,0,3,0,18,2,984.756432056427,None,1,0.21248316764831543,984.756432056427,None,985.0546369552612,None,986.075658082962,986.4240951538086,986.075658082962,986.4240951538086,985.0546369552612,None,985.0546369552612,None,985.0546369552612,None,600,550,1,True,518.3353424072266,-1.0,-1,990.473473072052,None,pp_07,icub,clamp,2021_Dec_21_1625,exp,2021.2.3,60.13520120319035,
left,go,2,0,2,0,3,1,19,0,991.0075600147247,None,1,1.2488219738006592,991.0075600147247,None,992.361221075058,None,993.3670530319214,993.7254040241241,993.3670530319214,993.7254040241241,992.361221075058,None,992.361221075058,None,992.361221075058,None,-1,-1,1,True,497.1156120300293,540.1632785797119,left,995.2925601005554,None,pp_07,icub,clamp,2021_Dec_21_1625,exp,2021.2.3,60.13520120319035,
right,go,2,0,2,0,3,2,20,4,995.79718708992,None,1,0.34493303298950195,995.79718708992,None,996.2755110263824,None,997.2817370891571,997.6239981651306,997.2817370891571,997.6239981651306,996.2755110263824,None,996.2755110263824,None,996.2755110263824,None,-1,-1,1,True,551.4523983001709,716.3300514221191,right,999.419557094574,None,pp_07,icub,clamp,2021_Dec_21_1625,exp,2021.2.3,60.13520120319035,
right,go,2,0,2,0,3,3,21,4,999.9282970428467,None,1,0.6344931125640869,999.9282970428467,None,1000.6571879386902,None,1001.6487951278687,1002.00155210495,1001.6487951278687,1002.00155210495,1000.6571879386902,None,1000.6571879386902,None,1000.6571879386902,None,-1,-1,1,True,497.17235565185547,762.3884677886963,right,1003.7914519309998,None,pp_07,icub,clamp,2021_Dec_21_1625,exp,2021.2.3,60.13520120319035,
left,go,2,0,2,0,3,4,22,1,1004.3085751533508,None,1,0.6192929744720459,1004.3085751533508,None,1005.0382680892944,None,1006.0497951507568,1006.3944461345673,1006.0497951507568,1006.3944461345673,1005.0382680892944,None,1005.0382680892944,None,1005.0382680892944,None,-1,-1,1,True,635.4234218597412,906.846284866333,left,1008.4656579494476,None,pp_07,icub,clamp,2021_Dec_21_1625,exp,2021.2.3,60.13520120319035,
left,go,2,0,2,0,3,5,23,1,1008.9976930618286,None,1,0.19136714935302734,1008.9976930618286,None,1009.2870650291443,None,1010.2899060249329,1010.6499309539795,1010.2899060249329,1010.6499309539795,1009.2870650291443,None,1009.2870650291443,None,1009.2870650291443,None,-1,-1,1,True,1031.933307647705,846.4536666870117,left,1013.0537509918213,None,pp_07,icub,clamp,2021_Dec_21_1625,exp,2021.2.3,60.13520120319035,
right,go,2,0,2,0,4,0,24,3,1013.5578711032867,None,1,0.18616199493408203,1013.5578711032867,None,1013.8551449775696,None,1014.8570899963379,1015.218416929245,1014.8570899963379,1015.218416929245,1013.8551449775696,None,1013.8551449775696,None,1013.8551449775696,None,-1,-1,1,True,502.90513038635254,891.6885852813721,right,1017.1453969478607,None,pp_07,icub,clamp,2021_Dec_21_1625,exp,2021.2.3,60.13520120319035,
left,stop,2,0,2,0,4,1,25,2,1017.6453840732574,None,1,0.561345100402832,1017.6453840732574,None,1018.3108110427856,None,1019.3130769729614,1019.6527509689331,1019.3130769729614,1019.6527509689331,1018.3108110427856,None,1018.3108110427856,None,1018.3108110427856,None,650,550,1,True,715.808629989624,-1.0,-1,1023.9013631343842,None,pp_07,icub,clamp,2021_Dec_21_1625,exp,2021.2.3,60.13520120319035,
left,go,2,0,2,0,4,2,26,1,1024.4336581230164,None,1,2.081679105758667,1024.4336581230164,None,1026.6547639369965,None,1027.6229770183563,1027.9676849842072,1027.6229770183563,1027.9676849842072,1026.6547639369965,None,1026.6547639369965,None,1026.6547639369965,None,-1,-1,1,True,637.7153396606445,820.7783699035645,left,1029.9876551628113,None,pp_07,icub,clamp,2021_Dec_21_1625,exp,2021.2.3,60.13520120319035,
right,stop,2,0,2,0,4,3,27,5,1030.5017080307007,None,1,0.3788731098175049,1030.5017080307007,None,1030.9814910888672,None,1032.0105271339417,1032.3502390384674,1032.0105271339417,1032.3502390384674,1030.9814910888672,None,1030.9814910888672,None,1030.9814910888672,None,700,550,1,True,648.735761642456,-1.0,-1,1036.5142800807953,None,pp_07,icub,clamp,2021_Dec_21_1625,exp,2021.2.3,60.13520120319035,
right,stop,2,0,2,0,4,4,28,5,1037.0468649864197,None,1,1.1024079322814941,1037.0468649864197,None,1038.2767100334167,None,1039.255648136139,1039.6130230426788,1039.255648136139,1039.6130230426788,1038.2767100334167,None,1038.2767100334167,None,1038.2767100334167,None,700,600,1,True,930.0825595855713,-1.0,-1,1044.1045980453491,None,pp_07,icub,clamp,2021_Dec_21_1625,exp,2021.2.3,60.13520120319035,
right,go,2,0,2,0,4,5,29,3,1044.636631011963,None,1,5.180637836456299,1044.636631011963,None,1049.9017541408539,None,1050.8790440559387,1051.2459819316864,1050.8790440559387,1051.2459819316864,1049.9017541408539,None,1049.9017541408539,None,1049.9017541408539,None,-1,-1,1,True,826.8845081329346,739.5291328430176,right,1053.3395910263062,None,pp_07,icub,clamp,2021_Dec_21_1625,exp,2021.2.3,60.13520120319035,
right,go,2,0,2,0,5,0,30,4,1053.8655271530151,None,1,0.4862549304962158,1053.8655271530151,None,1054.4701550006866,None,1055.4672589302063,1055.8239510059357,1055.4672589302063,1055.8239510059357,1054.4701550006866,None,1054.4701550006866,None,1054.4701550006866,None,-1,-1,1,True,337.174654006958,1169.4014072418213,right,1057.8562121391296,None,pp_07,icub,clamp,2021_Dec_21_1625,exp,2021.2.3,60.13520120319035,
right,stop,2,0,2,0,5,1,31,5,1058.3821711540222,None,1,0.3214700222015381,1058.3821711540222,None,1058.8044970035553,None,1059.827173948288,1060.198898077011,1059.827173948288,1060.198898077011,1058.8044970035553,None,1058.8044970035553,None,1058.8044970035553,None,700,650,1,True,495.1171875,-1.0,-1,1064.211126089096,None,pp_07,icub,clamp,2021_Dec_21_1625,exp,2021.2.3,60.13520120319035,
left,go,2,0,2,0,5,2,32,1,1064.7425000667572,None,1,2.387709140777588,1064.7425000667572,None,1067.269541978836,None,1068.2673180103302,1068.616315126419,1068.2673180103302,1068.616315126419,1067.269541978836,None,1067.269541978836,None,1067.269541978836,None,-1,-1,1,True,429.5201301574707,1082.714319229126,left,1070.67511510849,None,pp_07,icub,clamp,2021_Dec_21_1625,exp,2021.2.3,60.13520120319035,
right,stop,2,0,2,0,5,3,33,5,1071.1782219409943,None,1,0.34343409538269043,1071.1782219409943,None,1071.649348974228,None,1072.6838641166687,1073.026859998703,1072.6838641166687,1073.026859998703,1071.649348974228,None,1071.649348974228,None,1071.649348974228,None,700,700,1,True,716.1686420440674,-1.0,-1,1077.2747960090637,None,pp_07,icub,clamp,2021_Dec_21_1625,exp,2021.2.3,60.13520120319035,
left,go,2,0,2,0,5,4,34,1,1077.8063609600067,None,1,0.5867857933044434,1077.8063609600067,None,1078.4799959659576,None,1079.4577090740204,1079.8171639442444,1079.4577090740204,1079.8171639442444,1078.4799959659576,None,1078.4799959659576,None,1078.4799959659576,None,-1,-1,1,True,452.90160179138184,1005.5689811706543,left,1081.8021149635315,None,pp_07,icub,clamp,2021_Dec_21_1625,exp,2021.2.3,60.13520120319035,
left,go,2,0,2,0,5,5,35,1,1082.3333849906921,None,1,0.14914512634277344,1082.3333849906921,None,1082.568148136139,None,1083.594467163086,1083.9555411338806,1083.594467163086,1083.9555411338806,1082.568148136139,None,1082.568148136139,None,1082.568148136139,None,-1,-1,1,True,570.2009201049805,816.3585662841797,left,1085.8301391601562,None,pp_07,icub,clamp,2021_Dec_21_1625,exp,2021.2.3,60.13520120319035,
left,go,2,0,2,0,6,0,36,1,1086.3483209609985,None,1,0.2411959171295166,1086.3483209609985,None,1086.7043080329895,None,1087.7052640914917,1088.0483701229095,1087.7052640914917,1088.0483701229095,1086.7043080329895,None,1086.7043080329895,None,1086.7043080329895,None,-1,-1,1,True,521.7571258544922,947.1428394317627,left,1090.0503871440887,None,pp_07,icub,clamp,2021_Dec_21_1625,exp,2021.2.3,60.13520120319035,
left,go,2,0,2,0,6,1,37,1,1090.5689160823822,None,1,0.22068190574645996,1090.5689160823822,None,1090.9133541584015,None,1091.9383389949799,1092.2977550029755,1091.9383389949799,1092.2977550029755,1090.9133541584015,None,1090.9133541584015,None,1090.9133541584015,None,-1,-1,1,True,712.3749256134033,755.9194564819336,left,1094.2821929454803,None,pp_07,icub,clamp,2021_Dec_21_1625,exp,2021.2.3,60.13520120319035,
right,stop,2,0,2,0,6,2,38,5,1094.8026740550995,None,1,0.267319917678833,1094.8026740550995,None,1095.1503131389618,None,1096.150846004486,1096.511530160904,1096.150846004486,1096.511530160904,1095.1503131389618,None,1095.1503131389618,None,1095.1503131389618,None,700,750,0,True,796.452522277832,803.5824298858643,right,1098.642385005951,None,pp_07,icub,clamp,2021_Dec_21_1625,exp,2021.2.3,60.13520120319035,
left,go,2,0,2,0,6,3,39,1,1099.1522300243378,None,1,2.2122020721435547,1099.1522300243378,None,1101.4880690574646,None,1102.5023770332336,1102.8605871200562,1102.5023770332336,1102.8605871200562,1101.4880690574646,None,1101.4880690574646,None,1101.4880690574646,None,-1,-1,1,True,495.225191116333,778.4605026245117,left,1104.6643221378326,None,pp_07,icub,clamp,2021_Dec_21_1625,exp,2021.2.3,60.13520120319035,
right,stop,2,0,2,0,6,4,40,5,1105.1875109672546,None,1,0.2610740661621094,1105.1875109672546,None,1105.5494430065155,None,1106.5598011016846,1106.9100511074066,1106.5598011016846,1106.9100511074066,1105.5494430065155,None,1105.5494430065155,None,1105.5494430065155,None,700,700,1,True,667.3057079315186,-1.0,-1,1111.1021230220795,None,pp_07,icub,clamp,2021_Dec_21_1625,exp,2021.2.3,60.13520120319035,
right,stop,2,0,2,0,6,5,41,5,1111.6352200508118,None,1,3.6587769985198975,1111.6352200508118,None,1115.4043741226196,None,1116.3922910690308,1116.7412791252136,1116.3922910690308,1116.7412791252136,1115.4043741226196,None,1115.4043741226196,None,1115.4043741226196,None,700,750,0,True,461.64751052856445,833.8580131530762,right,1118.607164144516,None,pp_07,icub,clamp,2021_Dec_21_1625,exp,2021.2.3,60.13520120319035,
right,go,2,0,2,0,7,0,42,3,1119.1275379657745,None,1,2.2792041301727295,1119.1275379657745,None,1121.522866010666,None,1122.526607990265,1122.8626201152802,1122.526607990265,1122.8626201152802,1121.522866010666,None,1121.522866010666,None,1121.522866010666,None,-1,-1,1,True,608.8578701019287,842.381477355957,right,1124.8623490333557,None,pp_07,icub,clamp,2021_Dec_21_1625,exp,2021.2.3,60.13520120319035,
left,go,2,0,2,0,7,1,43,0,1125.3702459335327,None,1,0.48038196563720703,1125.3702459335327,None,1125.9696600437164,None,1126.9867520332336,1127.3371040821075,1126.9867520332336,1127.3371040821075,1125.9696600437164,None,1125.9696600437164,None,1125.9696600437164,None,-1,-1,1,True,437.0737075805664,698.1766223907471,left,1128.996015071869,None,pp_07,icub,clamp,2021_Dec_21_1625,exp,2021.2.3,60.13520120319035,
left,stop,2,0,2,0,7,2,44,2,1129.505707025528,None,1,0.3155481815338135,1129.505707025528,None,1129.92809009552,None,1130.9301550388336,1131.2895081043243,1130.9301550388336,1131.2895081043243,1129.92809009552,None,1129.92809009552,None,1129.92809009552,None,700,700,0,True,692.0437812805176,705.2445411682129,left,1133.2090809345245,None,pp_07,icub,clamp,2021_Dec_21_1625,exp,2021.2.3,60.13520120319035,
left,go,2,0,2,0,7,3,45,0,1133.7212629318237,None,1,4.317014932632446,1133.7212629318237,None,1138.1558799743652,None,1139.1580829620361,1139.5116040706635,1139.1580829620361,1139.5116040706635,1138.1558799743652,None,1138.1558799743652,None,1138.1558799743652,None,-1,-1,1,True,261.05284690856934,781.9879055023193,left,1141.0790989398956,None,pp_07,icub,clamp,2021_Dec_21_1625,exp,2021.2.3,60.13520120319035,
right,go,2,0,2,0,7,4,46,4,1141.6000521183014,None,1,0.5684511661529541,1141.6000521183014,None,1142.2698941230774,None,1143.2673881053925,1143.6179161071777,1143.2673881053925,1143.6179161071777,1142.2698941230774,None,1142.2698941230774,None,1142.2698941230774,None,-1,-1,1,True,474.2004871368408,1028.5236835479736,right,1145.6779870986938,None,pp_07,icub,clamp,2021_Dec_21_1625,exp,2021.2.3,60.13520120319035,
right,go,2,0,2,0,7,5,47,4,1146.1943809986115,None,1,0.7028770446777344,1146.1943809986115,None,1146.9878990650177,None,1147.9845790863037,1148.334862947464,1147.9845790863037,1148.334862947464,1146.9878990650177,None,1146.9878990650177,None,1146.9878990650177,None,-1,-1,1,True,423.63429069519043,1079.6079635620117,right,1150.37100815773,None,pp_07,icub,clamp,2021_Dec_21_1625,exp,2021.2.3,60.13520120319035,
left,stop,2,0,2,0,8,0,48,2,1150.8743500709534,None,1,0.4726898670196533,1150.8743500709534,None,1151.4647209644318,None,1152.4887280464172,1152.8563499450684,1152.4887280464172,1152.8563499450684,1151.4647209644318,None,1151.4647209644318,None,1151.4647209644318,None,650,700,1,True,268.34654808044434,-1.0,-1,1156.6145250797272,None,pp_07,icub,clamp,2021_Dec_21_1625,exp,2021.2.3,60.13520120319035,
right,go,2,0,2,0,8,1,49,3,1157.147094964981,None,1,0.3217611312866211,1157.147094964981,None,1157.5752849578857,None,1158.548359155655,1158.908030986786,1158.548359155655,1158.908030986786,1157.5752849578857,None,1157.5752849578857,None,1157.5752849578857,None,-1,-1,1,True,379.547119140625,932.6772689819336,right,1160.7532241344452,None,pp_07,icub,clamp,2021_Dec_21_1625,exp,2021.2.3,60.13520120319035,
right,go,2,0,2,0,8,2,50,4,1161.2601339817047,None,1,0.35507822036743164,1161.2601339817047,None,1161.7390871047974,None,1162.7344999313354,1163.0706689357758,1162.7344999313354,1163.0706689357758,1161.7390871047974,None,1161.7390871047974,None,1161.7390871047974,None,-1,-1,1,True,261.7635726928711,744.232177734375,right,1164.6177370548248,None,pp_07,icub,clamp,2021_Dec_21_1625,exp,2021.2.3,60.13520120319035,
right,go,2,0,2,0,8,3,51,4,1165.1400859355927,None,1,0.2593379020690918,1165.1400859355927,None,1165.5003700256348,None,1166.515527009964,1166.8693521022797,1166.515527009964,1166.8693521022797,1165.5003700256348,None,1165.5003700256348,None,1165.5003700256348,None,-1,-1,1,True,546.0853576660156,844.2883491516113,right,1168.7789161205292,None,pp_07,icub,clamp,2021_Dec_21_1625,exp,2021.2.3,60.13520120319035,
right,go,2,0,2,0,8,4,52,3,1169.295851945877,None,1,0.4404478073120117,1169.295851945877,None,1169.837496995926,None,1170.847990989685,1171.2057621479034,1170.847990989685,1171.2057621479034,1169.837496995926,None,1169.837496995926,None,1169.837496995926,None,-1,-1,1,True,487.51235008239746,1113.5265827178955,right,1173.332221031189,None,pp_07,icub,clamp,2021_Dec_21_1625,exp,2021.2.3,60.13520120319035,
right,go,2,0,2,0,8,5,53,3,1173.8352091312408,None,1,0.26520586013793945,1173.8352091312408,None,1174.1911289691925,None,1175.213681936264,1175.5715689659119,1175.213681936264,1175.5715689659119,1174.1911289691925,None,1174.1911289691925,None,1174.1911289691925,None,-1,-1,1,True,527.5046825408936,1003.6594867706299,right,1177.5934209823608,None,pp_07,icub,clamp,2021_Dec_21_1625,exp,2021.2.3,60.13520120319035,
right,go,2,0,2,0,9,0,54,4,1178.108705997467,None,1,0.414531946182251,1178.108705997467,None,1178.6511540412903,None,1179.6433820724487,1179.9876990318298,1179.6433820724487,1179.9876990318298,1178.6511540412903,None,1178.6511540412903,None,1178.6511540412903,None,-1,-1,1,True,501.04641914367676,922.6064682006836,right,1181.97718501091,None,pp_07,icub,clamp,2021_Dec_21_1625,exp,2021.2.3,60.13520120319035,
left,stop,2,0,2,0,9,1,55,2,1182.4877290725708,None,1,0.3836851119995117,1182.4877290725708,None,1182.9726679325104,None,1183.9749510288239,1184.3002750873566,1183.9749510288239,1184.3002750873566,1182.9726679325104,None,1182.9726679325104,None,1182.9726679325104,None,700,700,1,True,480.6256294250488,-1.0,-1,1188.3552770614624,None,pp_07,icub,clamp,2021_Dec_21_1625,exp,2021.2.3,60.13520120319035,
right,go,2,0,2,0,9,2,56,3,1188.8878500461578,None,1,1.582895040512085,1188.8878500461578,None,1190.553652048111,None,1191.5346109867096,1191.865031003952,1191.5346109867096,1191.865031003952,1190.553652048111,None,1190.553652048111,None,1190.553652048111,None,-1,-1,1,True,421.42486572265625,926.934003829956,right,1193.7867980003357,None,pp_07,icub,clamp,2021_Dec_21_1625,exp,2021.2.3,60.13520120319035,
right,stop,2,0,2,0,9,3,57,5,1194.3019680976868,None,1,0.44953393936157227,1194.3019680976868,None,1194.8460929393768,None,1195.8364250659943,1196.1932270526886,1195.8364250659943,1196.1932270526886,1194.8460929393768,None,1194.8460929393768,None,1194.8460929393768,None,750,700,1,True,387.4945640563965,-1.0,-1,1200.1140370368958,None,pp_07,icub,clamp,2021_Dec_21_1625,exp,2021.2.3,60.13520120319035,
left,go,2,0,2,0,9,4,58,0,1200.6446659564972,None,1,1.4850318431854248,1200.6446659564972,None,1202.2463719844818,None,1203.2320280075073,1203.5823340415955,1203.2320280075073,1203.5823340415955,1202.2463719844818,None,1202.2463719844818,None,1202.2463719844818,None,-1,-1,1,True,498.46458435058594,974.0352630615234,left,1205.607815027237,None,pp_07,icub,clamp,2021_Dec_21_1625,exp,2021.2.3,60.13520120319035,
right,go,2,0,2,0,9,5,59,4,1206.1277329921722,None,1,1.8937058448791504,1206.1277329921722,None,1208.097058057785,None,1209.0882589817047,1209.4491579532623,1209.0882589817047,1209.4491579532623,1208.097058057785,None,1208.097058057785,None,1208.097058057785,None,-1,-1,1,True,620.4400062561035,688.1520748138428,right,1211.290699005127,None,pp_07,icub,clamp,2021_Dec_21_1625,exp,2021.2.3,60.13520120319035,
left,stop,2,0,2,0,10,0,60,2,1211.8138511180878,None,1,0.6684439182281494,1211.8138511180878,None,1212.6065199375153,None,1213.6161811351776,1213.9436769485474,1213.6161811351776,1213.9436769485474,1212.6065199375153,None,1212.6065199375153,None,1212.6065199375153,None,750,750,0,True,423.83480072021484,628.7226676940918,left,1215.5507090091705,None,pp_07,icub,clamp,2021_Dec_21_1625,exp,2021.2.3,60.13520120319035,
left,go,2,0,2,0,10,1,61,0,1216.069687128067,None,1,1.4354979991912842,1216.069687128067,None,1217.605945110321,None,1218.6352360248566,1218.9754691123962,1218.6352360248566,1218.9754691123962,1217.605945110321,None,1217.605945110321,None,1217.605945110321,None,-1,-1,1,True,811.2096786499023,600.9454727172852,left,1220.9256711006165,None,pp_07,icub,clamp,2021_Dec_21_1625,exp,2021.2.3,60.13520120319035,
left,stop,2,0,2,0,10,2,62,2,1221.4439380168915,None,1,0.6473150253295898,1221.4439380168915,None,1222.171865940094,None,1223.1700270175934,1223.500179052353,1223.1700270175934,1223.500179052353,1222.171865940094,None,1222.171865940094,None,1222.171865940094,None,700,750,0,True,396.5630531311035,801.7897605895996,left,1225.2798130512238,None,pp_07,icub,clamp,2021_Dec_21_1625,exp,2021.2.3,60.13520120319035,
right,stop,2,0,2,0,10,3,63,5,1225.7983231544495,None,1,1.7621359825134277,1225.7983231544495,None,1227.6411571502686,None,1228.649565935135,1229.010332107544,1228.649565935135,1229.010332107544,1227.6411571502686,None,1227.6411571502686,None,1227.6411571502686,None,650,750,0,True,381.1831474304199,890.4929161071777,right,1230.7902591228485,None,pp_07,icub,clamp,2021_Dec_21_1625,exp,2021.2.3,60.13520120319035,
left,go,2,0,2,0,10,4,64,0,1231.3046879768372,None,1,1.6251699924468994,1231.3046879768372,None,1233.0155720710754,None,1234.0235109329224,1234.3727390766144,1234.0235109329224,1234.3727390766144,1233.0155720710754,None,1233.0155720710754,None,1233.0155720710754,None,-1,-1,1,True,393.18132400512695,832.0064544677734,left,1236.133628129959,None,pp_07,icub,clamp,2021_Dec_21_1625,exp,2021.2.3,60.13520120319035,
left,stop,2,0,2,0,10,5,65,2,1236.6553349494934,None,1,0.34577083587646484,1236.6553349494934,None,1237.1198890209198,None,1238.1214680671692,1238.4540431499481,1238.1214680671692,1238.4540431499481,1237.1198890209198,None,1237.1198890209198,None,1237.1198890209198,None,650,700,0,True,491.49513244628906,704.2109966278076,left,1240.2149541378021,None,pp_07,icub,clamp,2021_Dec_21_1625,exp,2021.2.3,60.13520120319035,
left,go,2,0,2,0,11,0,66,0,1240.7355041503906,None,1,0.7945020198822021,1240.7355041503906,None,1241.6518940925598,None,1242.68031001091,1243.0345890522003,1242.68031001091,1243.0345890522003,1241.6518940925598,None,1241.6518940925598,None,1241.6518940925598,None,-1,-1,1,True,470.8280563354492,1005.6023597717285,left,1245.0310940742493,None,pp_07,icub,clamp,2021_Dec_21_1625,exp,2021.2.3,60.13520120319035,
right,go,2,0,2,0,11,1,67,3,1245.5437769889832,None,1,0.3918302059173584,1245.5437769889832,None,1246.0214190483093,None,1247.0408210754395,1247.3797810077667,1247.0408210754395,1247.3797810077667,1246.0214190483093,None,1246.0214190483093,None,1246.0214190483093,None,-1,-1,1,True,295.3834533691406,834.9363803863525,right,1249.040559053421,None,pp_07,icub,clamp,2021_Dec_21_1625,exp,2021.2.3,60.13520120319035,
left,go,2,0,2,0,11,2,68,0,1249.558648109436,None,1,0.4221689701080322,1249.558648109436,None,1250.099900007248,None,1251.1158199310303,1251.4734120368958,1251.1158199310303,1251.4734120368958,1250.099900007248,None,1250.099900007248,None,1250.099900007248,None,-1,-1,1,True,317.1532154083252,677.8383255004883,left,1252.9982130527496,None,pp_07,icub,clamp,2021_Dec_21_1625,exp,2021.2.3,60.13520120319035,
left,go,2,0,2,0,11,3,69,1,1253.5158820152283,None,1,0.4812591075897217,1253.5158820152283,None,1254.1149690151215,None,1255.1284070014954,1255.4715840816498,1255.1284070014954,1255.4715840816498,1254.1149690151215,None,1254.1149690151215,None,1254.1149690151215,None,-1,-1,1,True,404.2491912841797,882.0827007293701,left,1257.2828750610352,None,pp_07,icub,clamp,2021_Dec_21_1625,exp,2021.2.3,60.13520120319035,
right,go,2,0,2,0,11,4,70,4,1257.7910261154175,None,1,0.25296688079833984,1257.7910261154175,None,1258.1489820480347,None,1259.1503610610962,1259.5085909366608,1259.1503610610962,1259.5085909366608,1258.1489820480347,None,1258.1489820480347,None,1258.1489820480347,None,-1,-1,1,True,535.9516143798828,759.1800689697266,right,1261.335144996643,None,pp_07,icub,clamp,2021_Dec_21_1625,exp,2021.2.3,60.13520120319035,
left,stop,2,0,2,0,11,5,71,2,1261.8555500507355,None,1,0.4036250114440918,1261.8555500507355,None,1262.3395669460297,None,1263.3615691661835,1263.7129011154175,1263.3615691661835,1263.7129011154175,1262.3395669460297,None,1262.3395669460297,None,1262.3395669460297,None,600,700,0,True,308.5753917694092,763.6220455169678,left,1265.3024480342865,None,pp_07,icub,clamp,2021_Dec_21_1625,exp,2021.2.3,60.13520120319035,
right,go,2,0,2,0,12,0,72,3,1265.804477930069,None,1,2.5925889015197754,1265.804477930069,None,1268.5132279396057,None,1269.5246829986572,None,1269.5246829986572,None,1268.5132279396057,None,1268.5132279396057,None,1268.5132279396057,None,,,0,False,-1.0,-1.0,-1,1269.902181148529,None,pp_07,icub,clamp,2021_Dec_21_1625,exp,2021.2.3,60.13520120319035,
right,go,2,0,2,0,12,1,73,3,1270.4353611469269,None,1,2.0170738697052,1270.4353611469269,None,1272.5323100090027,None,1273.521476984024,1273.8812520503998,1273.521476984024,1273.8812520503998,1272.5323100090027,None,1272.5323100090027,None,1272.5323100090027,None,-1,-1,1,True,395.0967788696289,836.5716934204102,right,1275.643387079239,None,pp_07,icub,clamp,2021_Dec_21_1625,exp,2021.2.3,60.13520120319035,
left,go,2,0,2,0,12,2,74,0,1276.1623380184174,None,1,0.6230249404907227,1276.1623380184174,None,1276.8758881092072,None,1277.9068410396576,1278.232738018036,1277.9068410396576,1278.232738018036,1276.8758881092072,None,1276.8758881092072,None,1276.8758881092072,None,-1,-1,1,True,409.03353691101074,705.9252262115479,left,1279.8707690238953,None,pp_07,icub,clamp,2021_Dec_21_1625,exp,2021.2.3,60.13520120319035,
right,stop,2,0,2,0,12,3,75,5,1280.3871369361877,None,1,0.26177191734313965,1280.3871369361877,None,1280.744509935379,None,1281.7645559310913,1282.1039409637451,1281.7645559310913,1282.1039409637451,1280.744509935379,None,1280.744509935379,None,1280.744509935379,None,550,700,0,True,346.1899757385254,858.436107635498,right,1283.8629441261292,None,pp_07,icub,clamp,2021_Dec_21_1625,exp,2021.2.3,60.13520120319035,
right,go,2,0,2,0,12,4,76,3,1284.376501083374,None,1,2.1723549365997314,1284.376501083374,None,1286.6502270698547,None,1287.6638679504395,1288.0178799629211,1287.6638679504395,1288.0178799629211,1286.6502270698547,None,1286.6502270698547,None,1286.6502270698547,None,-1,-1,1,True,394.72079277038574,910.1228713989258,right,1289.8432641029358,None,pp_07,icub,clamp,2021_Dec_21_1625,exp,2021.2.3,60.13520120319035,
right,go,2,0,2,0,12,5,77,4,1290.3588211536407,None,1,0.5859580039978027,1290.3588211536407,None,1291.054759979248,None,1292.0843889713287,1292.430319070816,1292.0843889713287,1292.430319070816,1291.054759979248,None,1291.054759979248,None,1291.054759979248,None,-1,-1,1,True,433.8192939758301,861.253023147583,right,1294.239648103714,None,pp_07,icub,clamp,2021_Dec_21_1625,exp,2021.2.3,60.13520120319035,
left,stop,3,0,3,0,0,0,0,2,1310.6277151107788,None,1,3.6024909019470215,1310.6277151107788,None,1314.310632944107,None,1315.3042719364166,1315.6508729457855,1315.3042719364166,1315.6508729457855,1314.310632944107,None,1314.310632944107,None,1314.310632944107,None,550,650,0,True,415.3878688812256,715.0049209594727,left,1317.357502937317,None,pp_07,icub,clamp,2021_Dec_21_1625,exp,2021.2.3,60.13520120319035,
left,stop,3,0,3,0,0,1,1,2,1317.8771510124207,None,1,1.5618281364440918,1317.8771510124207,None,1319.5396411418915,None,1320.5692160129547,1320.8966529369354,1320.5692160129547,1320.8966529369354,1319.5396411418915,None,1319.5396411418915,None,1319.5396411418915,None,500,650,1,True,457.4248790740967,-1.0,-1,1324.9087009429932,None,pp_07,icub,clamp,2021_Dec_21_1625,exp,2021.2.3,60.13520120319035,
left,go,3,0,3,0,0,2,2,0,1325.4044089317322,None,1,0.616858959197998,1325.4044089317322,None,1326.1415560245514,None,1327.1286430358887,1327.4846320152283,1327.1286430358887,1327.4846320152283,1326.1415560245514,None,1326.1415560245514,None,1326.1415560245514,None,-1,-1,1,True,364.7937774658203,774.3077278137207,left,1329.1562991142273,None,pp_07,icub,clamp,2021_Dec_21_1625,exp,2021.2.3,60.13520120319035,
right,stop,3,0,3,0,0,3,3,5,1329.6572091579437,None,1,0.36365199089050293,1329.6572091579437,None,1330.1367990970612,None,1331.1450910568237,1331.482924938202,1331.1450910568237,1331.482924938202,1330.1367990970612,None,1330.1367990970612,None,1330.1367990970612,None,550,650,0,True,522.7184295654297,894.6454524993896,right,1333.4700429439545,None,pp_07,icub,clamp,2021_Dec_21_1625,exp,2021.2.3,60.13520120319035,
right,stop,3,0,3,0,0,4,4,5,1333.984885931015,None,1,2.1388659477233887,1333.984885931015,None,1336.1989800930023,None,1337.2093570232391,1337.567104101181,1337.2093570232391,1337.567104101181,1336.1989800930023,None,1336.1989800930023,None,1336.1989800930023,None,550,600,1,True,513.9830112457275,-1.0,-1,1341.6063990592957,None,pp_07,icub,clamp,2021_Dec_21_1625,exp,2021.2.3,60.13520120319035,
right,stop,3,0,3,0,0,5,5,5,1342.10085105896,None,1,1.4776949882507324,1342.10085105896,None,1343.7036819458008,None,1344.6795461177826,1345.0474591255188,1344.6795461177826,1345.0474591255188,1343.7036819458008,None,1343.7036819458008,None,1343.7036819458008,None,550,650,1,True,365.4162883758545,-1.0,-1,1348.9637179374695,None,pp_07,icub,clamp,2021_Dec_21_1625,exp,2021.2.3,60.13520120319035,
left,go,3,0,3,0,1,0,6,0,1349.4962389469147,None,1,1.6638429164886475,1349.4962389469147,None,1351.2841529846191,None,1352.295737028122,1352.6457331180573,1352.295737028122,1352.6457331180573,1351.2841529846191,None,1351.2841529846191,None,1351.2841529846191,None,-1,-1,1,True,457.9169750213623,694.1032409667969,left,1354.327672958374,None,pp_07,icub,clamp,2021_Dec_21_1625,exp,2021.2.3,60.13520120319035,
right,go,3,0,3,0,1,1,7,4,1354.8468160629272,None,1,0.6087989807128906,1354.8468160629272,None,1355.5623099803925,None,1356.5572171211243,1356.9107511043549,1356.5572171211243,1356.9107511043549,1355.5623099803925,None,1355.5623099803925,None,1355.5623099803925,None,-1,-1,1,True,513.7600898742676,910.4900360107422,right,1358.8684549331665,None,pp_07,icub,clamp,2021_Dec_21_1625,exp,2021.2.3,60.13520120319035,
right,stop,3,0,3,0,1,2,8,5,1359.3720500469208,None,1,0.3508150577545166,1359.3720500469208,None,1359.8514730930328,None,1360.8756411075592,1361.2317810058594,1360.8756411075592,1361.2317810058594,1359.8514730930328,None,1359.8514730930328,None,1359.8514730930328,None,550,700,0,True,488.93213272094727,732.0876121520996,right,1362.9656629562378,None,pp_07,icub,clamp,2021_Dec_21_1625,exp,2021.2.3,60.13520120319035,
right,go,3,0,3,0,1,3,9,4,1363.4782099723816,None,1,2.670376777648926,1363.4782099723816,None,1366.2867140769958,None,1367.3026869297028,1367.654410123825,1367.3026869297028,1367.654410123825,1366.2867140769958,None,1366.2867140769958,None,1366.2867140769958,None,-1,-1,1,True,319.8506832122803,853.8713455200195,right,1369.359141111374,None,pp_07,icub,clamp,2021_Dec_21_1625,exp,2021.2.3,60.13520120319035,
left,stop,3,0,3,0,1,4,10,2,1369.8765881061554,None,1,0.5090439319610596,1369.8765881061554,None,1370.4809739589691,None,1371.47980594635,1371.8288481235504,1371.47980594635,1371.8288481235504,1370.4809739589691,None,1370.4809739589691,None,1370.4809739589691,None,550,650,0,True,116.17255210876465,703.4647464752197,left,1373.200845003128,None,pp_07,icub,clamp,2021_Dec_21_1625,exp,2021.2.3,60.13520120319035,
right,go,3,0,3,0,1,5,11,4,1373.7174880504608,None,1,2.449246883392334,1373.7174880504608,None,1376.2910780906677,None,1377.2864141464233,1377.633516073227,1377.2864141464233,1377.633516073227,1376.2910780906677,None,1376.2910780906677,None,1376.2910780906677,None,-1,-1,1,True,428.44176292419434,925.4398345947266,right,1379.5602979660034,None,pp_07,icub,clamp,2021_Dec_21_1625,exp,2021.2.3,60.13520120319035,
right,stop,3,0,3,0,2,0,12,5,1380.0639090538025,None,1,0.5536191463470459,1380.0639090538025,None,1380.6981301307678,None,1381.6903929710388,1382.0467879772186,1381.6903929710388,1382.0467879772186,1380.6981301307678,None,1380.6981301307678,None,1380.6981301307678,None,500,650,0,True,313.1885528564453,615.5459880828857,right,1383.5072331428528,None,pp_07,icub,clamp,2021_Dec_21_1625,exp,2021.2.3,60.13520120319035,
