Holder,Action,blocks.thisRepN,blocks.thisTrialN,blocks.thisN,blocks.thisIndex,trials.thisRepN,trials.thisTrialN,trials.thisN,trials.thisIndex,start_msg.started,start_msg.stopped,RespButton_start_trial.keys,RespButton_start_trial.rt,RespButton_start_trial.started,RespButton_start_trial.stopped,GREEN.started,GREEN.stopped,LEFT_RED.started,LEFT_RED.stopped,RIGHT_RED.started,RIGHT_RED.stopped,LEFT_CIRCLE.started,LEFT_CIRCLE.stopped,CENTER_CIRCLE.started,CENTER_CIRCLE.stopped,RIGHT_CIRCLE.started,RIGHT_CIRCLE.stopped,SOUND_DELAY_MS_LEFT,SOUND_DELAY_MS_RIGHT,CORRECT,VALIDITY,RELEASE_TIME,TOUCH_TIME,BOTTLE_RESPONSE_POSITION,text.started,text.stopped,pid,left_position,right_position,date,expName,psychopyVersion,frameRate,
right,go,0,0,0,0,0,0,0,3,35.681400775909424,None,1,12.928406953811646,35.681400775909424,None,48.72291088104248,None,49.717551946640015,50.06532096862793,49.717551946640015,50.06532096862793,48.72291088104248,None,48.72291088104248,None,48.72291088104248,None,-1,-1,1,True,346.38190269470215,612.617015838623,right,51.58482384681702,None,pp_17,icub,clamp,2021_Dec_23_1616,exp,2021.2.3,59.85048451976821,
left,stop,0,0,0,0,0,1,1,2,52.11848187446594,None,1,0.6702661514282227,52.11848187446594,None,52.908880949020386,None,53.929521799087524,54.291215896606445,53.929521799087524,54.291215896606445,52.908880949020386,None,52.908880949020386,None,52.908880949020386,None,500,500,0,True,374.3569850921631,557.8248500823975,left,55.75649690628052,None,pp_17,icub,clamp,2021_Dec_23_1616,exp,2021.2.3,59.85048451976821,
left,stop,0,0,0,0,0,2,2,2,56.287187814712524,None,1,0.8294708728790283,56.287187814712524,None,57.197075843811035,None,58.197035789489746,58.54637694358826,58.197035789489746,58.54637694358826,57.197075843811035,None,57.197075843811035,None,57.197075843811035,None,450,500,1,True,240.93270301818848,-1.0,-1,62.32064485549927,None,pp_17,icub,clamp,2021_Dec_23_1616,exp,2021.2.3,59.85048451976821,
left,go,0,0,0,0,0,3,3,1,62.812116861343384,None,1,0.591088056564331,62.812116861343384,None,63.48383378982544,None,64.45723700523376,64.81494379043579,64.45723700523376,64.81494379043579,63.48383378982544,None,63.48383378982544,None,63.48383378982544,None,-1,-1,1,True,274.13201332092285,766.0493850708008,left,66.41925096511841,None,pp_17,icub,clamp,2021_Dec_23_1616,exp,2021.2.3,59.85048451976821,
left,go,0,0,0,0,0,4,4,0,66.93418884277344,None,1,0.7677829265594482,66.93418884277344,None,67.7826919555664,None,68.77011394500732,69.13044500350952,68.77011394500732,69.13044500350952,67.7826919555664,None,67.7826919555664,None,67.7826919555664,None,-1,-1,1,True,549.0138530731201,717.228889465332,left,70.91310286521912,None,pp_17,icub,clamp,2021_Dec_23_1616,exp,2021.2.3,59.85048451976821,
right,go,0,0,0,0,0,5,5,4,71.4184718132019,None,1,0.9622159004211426,71.4184718132019,None,72.51352596282959,None,73.51918697357178,73.86203598976135,73.51918697357178,73.86203598976135,72.51352596282959,None,72.51352596282959,None,72.51352596282959,None,-1,-1,1,True,254.87494468688965,612.8191947937012,right,75.2908239364624,None,pp_17,icub,clamp,2021_Dec_23_1616,exp,2021.2.3,59.85048451976821,
left,go,0,0,0,0,1,0,6,1,75.82329082489014,None,1,0.47016382217407227,75.82329082489014,None,76.42199683189392,None,77.42783784866333,77.7937159538269,77.42783784866333,77.7937159538269,76.42199683189392,None,76.42199683189392,None,76.42199683189392,None,-1,-1,1,True,366.9419288635254,633.948802947998,left,79.32447385787964,None,pp_17,icub,clamp,2021_Dec_23_1616,exp,2021.2.3,59.85048451976821,
right,go,0,0,0,0,1,1,7,3,79.83257579803467,None,1,0.7130191326141357,79.83257579803467,None,80.62099289894104,None,81.65726399421692,82.01731395721436,81.65726399421692,82.01731395721436,80.62099289894104,None,80.62099289894104,None,80.62099289894104,None,-1,-1,1,True,404.6165943145752,677.5455474853516,right,83.5801899433136,None,pp_17,icub,clamp,2021_Dec_23_1616,exp,2021.2.3,59.85048451976821,
right,go,0,0,0,0,1,2,8,3,84.08264493942261,None,1,0.8781158924102783,84.08264493942261,None,85.08783888816833,None,86.10332298278809,86.46037888526917,86.10332298278809,86.46037888526917,85.08783888816833,None,85.08783888816833,None,85.08783888816833,None,-1,-1,1,True,228.5473346710205,744.2519664764404,right,87.95825695991516,None,pp_17,icub,clamp,2021_Dec_23_1616,exp,2021.2.3,59.85048451976821,
right,go,0,0,0,0,1,3,9,4,88.47740888595581,None,1,0.6292579174041748,88.47740888595581,None,89.20698285102844,None,90.23369288444519,90.58602690696716,90.23369288444519,90.58602690696716,89.20698285102844,None,89.20698285102844,None,89.20698285102844,None,-1,-1,1,True,291.1972999572754,565.3054714202881,right,91.9681658744812,None,pp_17,icub,clamp,2021_Dec_23_1616,exp,2021.2.3,59.85048451976821,
left,stop,0,0,0,0,1,4,10,2,92.47716188430786,None,1,0.49037599563598633,92.47716188430786,None,93.07886791229248,None,94.08099293708801,94.42787790298462,94.08099293708801,94.42787790298462,93.07886791229248,None,93.07886791229248,None,93.07886791229248,None,500,500,1,True,274.1994857788086,-1.0,-1,98.25309491157532,None,pp_17,icub,clamp,2021_Dec_23_1616,exp,2021.2.3,59.85048451976821,
left,go,0,0,0,0,1,5,11,0,98.78309488296509,None,1,0.659074068069458,98.78309488296509,None,99.57886600494385,None,100.5792338848114,100.94024896621704,100.5792338848114,100.94024896621704,99.57886600494385,None,99.57886600494385,None,99.57886600494385,None,-1,-1,1,True,211.9007110595703,1378.4632682800293,left,103.05491280555725,None,pp_17,icub,clamp,2021_Dec_23_1616,exp,2021.2.3,59.85048451976821,
right,stop,0,0,0,0,2,0,12,5,103.59379196166992,None,1,0.6678299903869629,103.59379196166992,None,104.38137793540955,None,105.4045557975769,105.75508880615234,105.4045557975769,105.75508880615234,104.38137793540955,None,104.38137793540955,None,104.38137793540955,None,550,500,1,True,268.62549781799316,-1.0,-1,109.55174779891968,None,pp_17,icub,clamp,2021_Dec_23_1616,exp,2021.2.3,59.85048451976821,
right,stop,0,0,0,0,2,1,13,5,110.08180499076843,None,1,0.2923879623413086,110.08180499076843,None,110.50940895080566,None,111.48993182182312,111.8438949584961,111.48993182182312,111.8438949584961,110.50940895080566,None,110.50940895080566,None,110.50940895080566,None,550,550,0,True,147.61042594909668,636.1737251281738,right,113.15296077728271,None,pp_17,icub,clamp,2021_Dec_23_1616,exp,2021.2.3,59.85048451976821,
right,stop,0,0,0,0,2,2,14,5,113.66118288040161,None,1,0.8680999279022217,113.66118288040161,None,114.6355369091034,None,115.65262389183044,116.01043200492859,115.65262389183044,116.01043200492859,114.6355369091034,None,114.6355369091034,None,114.6355369091034,None,550,500,0,True,373.6896514892578,568.579912185669,right,117.47582292556763,None,pp_17,icub,clamp,2021_Dec_23_1616,exp,2021.2.3,59.85048451976821,
right,go,0,0,0,0,2,3,15,3,118.01150798797607,None,1,0.6639740467071533,118.01150798797607,None,118.80002498626709,None,119.83347296714783,120.1904969215393,119.83347296714783,120.1904969215393,118.80002498626709,None,118.80002498626709,None,118.80002498626709,None,-1,-1,1,True,222.98908233642578,625.4925727844238,right,121.52261996269226,None,pp_17,icub,clamp,2021_Dec_23_1616,exp,2021.2.3,59.85048451976821,
right,go,0,0,0,0,2,4,16,4,122.04230690002441,None,1,0.5590379238128662,122.04230690002441,None,122.70738291740417,None,123.71209383010864,124.06952691078186,123.71209383010864,124.06952691078186,122.70738291740417,None,122.70738291740417,None,122.70738291740417,None,-1,-1,1,True,239.227294921875,728.3446788787842,right,125.56100392341614,None,pp_17,icub,clamp,2021_Dec_23_1616,exp,2021.2.3,59.85048451976821,
left,stop,0,0,0,0,2,5,17,2,126.06353783607483,None,1,0.4769251346588135,126.06353783607483,None,126.6658308506012,None,127.65834188461304,128.0088210105896,127.65834188461304,128.0088210105896,126.6658308506012,None,126.6658308506012,None,126.6658308506012,None,550,450,1,True,339.05553817749023,-1.0,-1,131.9097809791565,None,pp_17,icub,clamp,2021_Dec_23_1616,exp,2021.2.3,59.85048451976821,
right,go,0,0,0,0,3,0,18,4,132.43852400779724,None,1,0.6745650768280029,132.43852400779724,None,133.23368978500366,None,134.21248292922974,134.581848859787,134.21248292922974,134.581848859787,133.23368978500366,None,133.23368978500366,None,133.23368978500366,None,-1,-1,1,True,229.8736572265625,717.2844409942627,right,136.0600118637085,None,pp_17,icub,clamp,2021_Dec_23_1616,exp,2021.2.3,59.85048451976821,
right,stop,0,0,0,0,3,1,19,5,136.57773399353027,None,1,0.39860105514526367,136.57773399353027,None,137.09314680099487,None,138.1238148212433,138.45464777946472,138.1238148212433,138.45464777946472,137.09314680099487,None,137.09314680099487,None,137.09314680099487,None,600,450,1,True,321.0103511810303,-1.0,-1,142.30338788032532,None,pp_17,icub,clamp,2021_Dec_23_1616,exp,2021.2.3,59.85048451976821,
right,stop,0,0,0,0,3,2,20,5,142.8332347869873,None,1,0.3597269058227539,142.8332347869873,None,143.3221869468689,None,144.30149579048157,144.65490293502808,144.30149579048157,144.65490293502808,143.3221869468689,None,143.3221869468689,None,143.3221869468689,None,600,500,0,True,29.852628707885742,508.211612701416,right,145.7592179775238,None,pp_17,icub,clamp,2021_Dec_23_1616,exp,2021.2.3,59.85048451976821,
right,go,0,0,0,0,3,3,21,3,146.26143980026245,None,1,1.0429069995880127,146.26143980026245,None,147.41948795318604,None,148.4375078678131,148.7915289402008,148.4375078678131,148.7915289402008,147.41948795318604,None,147.41948795318604,None,147.41948795318604,None,-1,-1,1,True,282.38654136657715,587.8441333770752,right,150.19462180137634,None,pp_17,icub,clamp,2021_Dec_23_1616,exp,2021.2.3,59.85048451976821,
right,go,0,0,0,0,3,4,22,3,150.70352983474731,None,1,0.41687703132629395,150.70352983474731,None,151.24433279037476,None,152.25561594963074,152.6152548789978,152.25561594963074,152.6152548789978,151.24433279037476,None,151.24433279037476,None,151.24433279037476,None,-1,-1,1,True,257.1220397949219,686.8841648101807,right,154.08486080169678,None,pp_17,icub,clamp,2021_Dec_23_1616,exp,2021.2.3,59.85048451976821,
left,go,0,0,0,0,3,5,23,1,154.6032748222351,None,1,0.6303019523620605,154.6032748222351,None,155.32905793190002,None,156.32537293434143,156.68371295928955,156.32537293434143,156.68371295928955,155.32905793190002,None,155.32905793190002,None,155.32905793190002,None,-1,-1,1,True,223.77443313598633,686.0349178314209,left,158.1181960105896,None,pp_17,icub,clamp,2021_Dec_23_1616,exp,2021.2.3,59.85048451976821,
right,stop,0,0,0,0,4,0,24,5,158.63043689727783,None,1,0.5977838039398193,158.63043689727783,None,159.35732698440552,None,160.3577799797058,160.7067267894745,160.3577799797058,160.7067267894745,159.35732698440552,None,159.35732698440552,None,159.35732698440552,None,600,450,0,True,335.80517768859863,506.66069984436035,right,162.08828282356262,None,pp_17,icub,clamp,2021_Dec_23_1616,exp,2021.2.3,59.85048451976821,
left,go,0,0,0,0,4,1,25,0,162.60447692871094,None,1,0.7111520767211914,162.60447692871094,None,163.3961398601532,None,164.41746282577515,164.77106285095215,164.41746282577515,164.77106285095215,163.3961398601532,None,163.3961398601532,None,163.3961398601532,None,-1,-1,1,True,284.24906730651855,635.0729465484619,left,166.21513390541077,None,pp_17,icub,clamp,2021_Dec_23_1616,exp,2021.2.3,59.85048451976821,
left,stop,0,0,0,0,4,2,26,2,166.73369979858398,None,1,0.41364097595214844,166.73369979858398,None,167.26724481582642,None,168.28077387809753,168.63111996650696,168.28077387809753,168.63111996650696,167.26724481582642,None,167.26724481582642,None,167.26724481582642,None,600,400,0,True,373.86417388916016,616.147518157959,left,170.1367700099945,None,pp_17,icub,clamp,2021_Dec_23_1616,exp,2021.2.3,59.85048451976821,
right,go,0,0,0,0,4,3,27,4,170.6613929271698,None,1,0.7059230804443359,170.6613929271698,None,171.49473190307617,None,172.51354479789734,172.87114095687866,172.51354479789734,172.87114095687866,171.49473190307617,None,171.49473190307617,None,171.49473190307617,None,-1,-1,1,True,299.55244064331055,626.6505718231201,right,174.32206177711487,None,pp_17,icub,clamp,2021_Dec_23_1616,exp,2021.2.3,59.85048451976821,
right,go,0,0,0,0,4,4,28,4,174.83169889450073,None,1,0.390470027923584,174.83169889450073,None,175.30820894241333,None,176.32857179641724,176.69417881965637,176.32857179641724,176.69417881965637,175.30820894241333,None,175.30820894241333,None,175.30820894241333,None,-1,-1,1,True,306.80060386657715,539.6952629089355,right,178.06447386741638,None,pp_17,icub,clamp,2021_Dec_23_1616,exp,2021.2.3,59.85048451976821,
right,go,0,0,0,0,4,5,29,4,178.59367084503174,None,1,0.3917360305786133,178.59367084503174,None,179.07606387138367,None,180.08147287368774,180.42911791801453,180.08147287368774,180.42911791801453,179.07606387138367,None,179.07606387138367,None,179.07606387138367,None,-1,-1,1,True,282.2234630584717,519.6850299835205,right,181.742830991745,None,pp_17,icub,clamp,2021_Dec_23_1616,exp,2021.2.3,59.85048451976821,
right,stop,0,0,0,0,5,0,30,5,182.26356983184814,None,1,0.46272802352905273,182.26356983184814,None,182.80644583702087,None,183.80627989768982,184.15633177757263,183.80627989768982,184.15633177757263,182.80644583702087,None,182.80644583702087,None,182.80644583702087,None,550,400,0,True,266.298770904541,491.11318588256836,right,185.45549082756042,None,pp_17,icub,clamp,2021_Dec_23_1616,exp,2021.2.3,59.85048451976821,
right,go,0,0,0,0,5,1,31,4,185.96782779693604,None,1,0.7694320678710938,185.96782779693604,None,186.81817197799683,None,187.81785488128662,188.17614698410034,187.81785488128662,188.17614698410034,186.81817197799683,None,186.81817197799683,None,186.81817197799683,None,-1,-1,1,True,280.1504135131836,591.1126136779785,right,189.58345699310303,None,pp_17,icub,clamp,2021_Dec_23_1616,exp,2021.2.3,59.85048451976821,
right,go,0,0,0,0,5,2,32,4,190.0963249206543,None,1,0.7025489807128906,190.0963249206543,None,190.88421893119812,None,191.90106081962585,192.25982999801636,191.90106081962585,192.25982999801636,190.88421893119812,None,190.88421893119812,None,190.88421893119812,None,-1,-1,1,True,440.2656555175781,596.7397689819336,right,193.8210699558258,None,pp_17,icub,clamp,2021_Dec_23_1616,exp,2021.2.3,59.85048451976821,
left,go,0,0,0,0,5,3,33,1,194.35162091255188,None,1,0.4745941162109375,194.35162091255188,None,194.95401978492737,None,195.96112394332886,196.3201777935028,195.96112394332886,196.3201777935028,194.95401978492737,None,194.95401978492737,None,194.95401978492737,None,-1,-1,1,True,484.80987548828125,533.8330268859863,left,197.8665099143982,None,pp_17,icub,clamp,2021_Dec_23_1616,exp,2021.2.3,59.85048451976821,
right,go,0,0,0,0,5,4,34,4,198.38089299201965,None,1,0.3744051456451416,198.38089299201965,None,198.8589940071106,None,199.86871790885925,200.20158886909485,199.86871790885925,200.20158886909485,198.8589940071106,None,198.8589940071106,None,198.8589940071106,None,-1,-1,1,True,239.54510688781738,591.0625457763672,right,201.55599999427795,None,pp_17,icub,clamp,2021_Dec_23_1616,exp,2021.2.3,59.85048451976821,
right,go,0,0,0,0,5,5,35,3,202.07432889938354,None,1,0.356860876083374,202.07432889938354,None,202.55101799964905,None,203.5650668144226,203.9117407798767,203.5650668144226,203.9117407798767,202.55101799964905,None,202.55101799964905,None,202.55101799964905,None,-1,-1,1,True,361.18459701538086,550.0984191894531,right,205.34001183509827,None,pp_17,icub,clamp,2021_Dec_23_1616,exp,2021.2.3,59.85048451976821,
left,go,0,0,0,0,6,0,36,1,205.87000179290771,None,1,0.34943509101867676,205.87000179290771,None,206.33165192604065,None,207.34891295433044,207.69354486465454,207.34891295433044,207.69354486465454,206.33165192604065,None,206.33165192604065,None,206.33165192604065,None,-1,-1,1,True,308.2385063171387,732.7146530151367,left,209.25686287879944,None,pp_17,icub,clamp,2021_Dec_23_1616,exp,2021.2.3,59.85048451976821,
left,stop,0,0,0,0,6,1,37,2,209.76528000831604,None,1,0.3648660182952881,209.76528000831604,None,210.24389696121216,None,211.23901796340942,211.5935218334198,211.23901796340942,211.5935218334198,210.24389696121216,None,210.24389696121216,None,210.24389696121216,None,550,350,0,True,379.0783882141113,643.7523365020752,left,213.17268586158752,None,pp_17,icub,clamp,2021_Dec_23_1616,exp,2021.2.3,59.85048451976821,
left,go,0,0,0,0,6,2,38,1,213.69099593162537,None,1,0.5181989669799805,213.69099593162537,None,214.326819896698,None,215.3437089920044,215.69271779060364,215.3437089920044,215.69271779060364,214.326819896698,None,214.326819896698,None,214.326819896698,None,-1,-1,1,True,296.5221405029297,642.6982879638672,left,217.1539089679718,None,pp_17,icub,clamp,2021_Dec_23_1616,exp,2021.2.3,59.85048451976821,
right,go,0,0,0,0,6,3,39,3,217.6752209663391,None,1,0.7209279537200928,217.6752209663391,None,218.5057008266449,None,219.5189688205719,219.87976479530334,219.5189688205719,219.87976479530334,218.5057008266449,None,218.5057008266449,None,218.5057008266449,None,-1,-1,1,True,282.7744483947754,605.0388813018799,right,221.2987928390503,None,pp_17,icub,clamp,2021_Dec_23_1616,exp,2021.2.3,59.85048451976821,
left,go,0,0,0,0,6,4,40,1,221.8036539554596,None,1,0.5463590621948242,221.8036539554596,None,222.46568179130554,None,223.48161792755127,223.81199288368225,223.48161792755127,223.81199288368225,222.46568179130554,None,222.46568179130554,None,222.46568179130554,None,-1,-1,1,True,325.58679580688477,635.7078552246094,left,225.3266580104828,None,pp_17,icub,clamp,2021_Dec_23_1616,exp,2021.2.3,59.85048451976821,
right,go,0,0,0,0,6,5,41,3,225.84780597686768,None,1,0.5085108280181885,225.84780597686768,None,226.44753885269165,None,227.45679187774658,227.80469799041748,227.45679187774658,227.80469799041748,226.44753885269165,None,226.44753885269165,None,226.44753885269165,None,-1,-1,1,True,358.60419273376465,576.6305923461914,right,229.2676818370819,None,pp_17,icub,clamp,2021_Dec_23_1616,exp,2021.2.3,59.85048451976821,
left,go,0,0,0,0,7,0,42,1,229.7860779762268,None,1,0.6039729118347168,229.7860779762268,None,230.4934368133545,None,231.49343585968018,231.8456859588623,231.49343585968018,231.8456859588623,230.4934368133545,None,230.4934368133545,None,230.4934368133545,None,-1,-1,1,True,426.069974899292,522.4363803863525,left,233.32500982284546,None,pp_17,icub,clamp,2021_Dec_23_1616,exp,2021.2.3,59.85048451976821,
right,go,0,0,0,0,7,1,43,4,233.82918977737427,None,1,0.44974708557128906,233.82918977737427,None,234.36977100372314,None,235.39440488815308,235.74184584617615,235.39440488815308,235.74184584617615,234.36977100372314,None,234.36977100372314,None,234.36977100372314,None,-1,-1,1,True,334.423303604126,525.7048606872559,right,237.13017177581787,None,pp_17,icub,clamp,2021_Dec_23_1616,exp,2021.2.3,59.85048451976821,
left,go,0,0,0,0,7,2,44,1,237.64876294136047,None,1,0.47653698921203613,237.64876294136047,None,238.24780893325806,None,239.24402689933777,239.59643983840942,239.24402689933777,239.59643983840942,238.24780893325806,None,238.24780893325806,None,238.24780893325806,None,-1,-1,1,True,347.4280834197998,604.865550994873,left,241.0765519142151,None,pp_17,icub,clamp,2021_Dec_23_1616,exp,2021.2.3,59.85048451976821,
left,go,0,0,0,0,7,3,45,1,241.59584999084473,None,1,0.5253360271453857,241.59584999084473,None,242.24849486351013,None,243.2622799873352,243.62718987464905,243.2622799873352,243.62718987464905,242.24849486351013,None,242.24849486351013,None,242.24849486351013,None,-1,-1,1,True,348.3307361602783,594.4290161132812,left,245.09895777702332,None,pp_17,icub,clamp,2021_Dec_23_1616,exp,2021.2.3,59.85048451976821,
left,go,0,0,0,0,7,4,46,1,245.61522579193115,None,1,0.5315580368041992,245.61522579193115,None,246.24468278884888,None,247.2713108062744,247.633131980896,247.2713108062744,247.633131980896,246.24468278884888,None,246.24468278884888,None,246.24468278884888,None,-1,-1,1,True,423.21085929870605,571.4221000671387,left,249.150563955307,None,pp_17,icub,clamp,2021_Dec_23_1616,exp,2021.2.3,59.85048451976821,
left,go,0,0,0,0,7,5,47,0,249.6817238330841,None,1,0.45516490936279297,249.6817238330841,None,250.22220277786255,None,251.22434282302856,251.59076285362244,251.22434282302856,251.59076285362244,250.22220277786255,None,250.22220277786255,None,250.22220277786255,None,-1,-1,1,True,366.3969039916992,667.5419807434082,left,253.14392185211182,None,pp_17,icub,clamp,2021_Dec_23_1616,exp,2021.2.3,59.85048451976821,
left,stop,0,0,0,0,8,0,48,2,253.66154193878174,None,1,0.5652689933776855,253.66154193878174,None,254.34931182861328,None,255.3554539680481,255.71524596214294,255.3554539680481,255.71524596214294,254.34931182861328,None,254.34931182861328,None,254.34931182861328,None,500,350,0,True,173.83074760437012,640.1593685150146,left,257.0564749240875,None,pp_17,icub,clamp,2021_Dec_23_1616,exp,2021.2.3,59.85048451976821,
left,stop,0,0,0,0,8,1,49,2,257.5603950023651,None,1,1.1793951988220215,257.5603950023651,None,258.8408420085907,None,259.8405239582062,260.1992378234863,259.8405239582062,260.1992378234863,258.8408420085907,None,258.8408420085907,None,258.8408420085907,None,450,350,1,True,226.7780303955078,-1.0,-1,263.95603799819946,None,pp_17,icub,clamp,2021_Dec_23_1616,exp,2021.2.3,59.85048451976821,
right,go,0,0,0,0,8,2,50,3,264.4862678050995,None,1,0.38341498374938965,264.4862678050995,None,264.9741199016571,None,265.9544129371643,266.3007938861847,265.9544129371643,266.3007938861847,264.9741199016571,None,264.9741199016571,None,264.9741199016571,None,-1,-1,1,True,247.87259101867676,542.4070358276367,right,267.64714097976685,None,pp_17,icub,clamp,2021_Dec_23_1616,exp,2021.2.3,59.85048451976821,
right,stop,0,0,0,0,8,3,51,5,268.16523480415344,None,1,0.41599297523498535,268.16523480415344,None,268.7042498588562,None,269.7363848686218,270.0617878437042,269.7363848686218,270.0617878437042,268.7042498588562,None,268.7042498588562,None,268.7042498588562,None,500,350,0,True,221.13966941833496,480.75318336486816,right,271.28836488723755,None,pp_17,icub,clamp,2021_Dec_23_1616,exp,2021.2.3,59.85048451976821,
left,go,0,0,0,0,8,4,52,0,271.8048918247223,None,1,1.0988380908966064,271.8048918247223,None,273.0329430103302,None,274.04726791381836,274.38822197914124,274.04726791381836,274.38822197914124,273.0329430103302,None,273.0329430103302,None,273.0329430103302,None,-1,-1,1,True,171.71883583068848,697.5255012512207,left,275.78566694259644,None,pp_17,icub,clamp,2021_Dec_23_1616,exp,2021.2.3,59.85048451976821,
left,go,0,0,0,0,8,5,53,0,276.3071939945221,None,1,0.4638240337371826,276.3071939945221,None,276.84519600868225,None,277.84427285194397,278.201828956604,277.84427285194397,278.201828956604,276.84519600868225,None,276.84519600868225,None,276.84519600868225,None,-1,-1,1,True,240.8733367919922,537.45436668396,left,279.5085258483887,None,pp_17,icub,clamp,2021_Dec_23_1616,exp,2021.2.3,59.85048451976821,
left,go,0,0,0,0,9,0,54,1,280.0383608341217,None,1,0.3945770263671875,280.0383608341217,None,280.51849699020386,None,281.5466408729553,281.8979079723358,281.5466408729553,281.8979079723358,280.51849699020386,None,280.51849699020386,None,280.51849699020386,None,-1,-1,1,True,319.5536136627197,593.3513641357422,left,283.32766699790955,None,pp_17,icub,clamp,2021_Dec_23_1616,exp,2021.2.3,59.85048451976821,
right,go,0,0,0,0,9,1,55,4,283.8436448574066,None,1,0.3225131034851074,283.8436448574066,None,284.26183700561523,None,285.26117300987244,285.6193208694458,285.26117300987244,285.6193208694458,284.26183700561523,None,284.26183700561523,None,284.26183700561523,None,-1,-1,1,True,383.14199447631836,451.65205001831055,right,286.97610998153687,None,pp_17,icub,clamp,2021_Dec_23_1616,exp,2021.2.3,59.85048451976821,
left,go,0,0,0,0,9,2,56,0,287.4879939556122,None,1,0.30416202545166016,287.4879939556122,None,287.9070179462433,None,288.9414119720459,289.3028199672699,288.9414119720459,289.3028199672699,287.9070179462433,None,287.9070179462433,None,287.9070179462433,None,-1,-1,1,True,342.40007400512695,531.9252014160156,left,290.6607389450073,None,pp_17,icub,clamp,2021_Dec_23_1616,exp,2021.2.3,59.85048451976821,
left,go,0,0,0,0,9,3,57,0,291.17912888526917,None,1,0.46767592430114746,291.17912888526917,None,291.7171459197998,None,292.74097990989685,293.0923399925232,292.74097990989685,293.0923399925232,291.7171459197998,None,291.7171459197998,None,291.7171459197998,None,-1,-1,1,True,483.0758571624756,569.288969039917,left,294.67037081718445,None,pp_17,icub,clamp,2021_Dec_23_1616,exp,2021.2.3,59.85048451976821,
left,go,0,0,0,0,9,4,58,0,295.18548679351807,None,1,0.6663329601287842,295.18548679351807,None,295.971795797348,None,296.96711897850037,297.3114869594574,296.96711897850037,297.3114869594574,295.971795797348,None,295.971795797348,None,295.971795797348,None,-1,-1,1,True,472.41735458374023,636.3534927368164,left,298.97290086746216,None,pp_17,icub,clamp,2021_Dec_23_1616,exp,2021.2.3,59.85048451976821,
right,stop,0,0,0,0,9,5,59,5,299.5074288845062,None,1,0.5725529193878174,299.5074288845062,None,300.17068099975586,None,301.1773498058319,301.5080099105835,301.1773498058319,301.5080099105835,300.17068099975586,None,300.17068099975586,None,300.17068099975586,None,500,300,1,True,462.6343250274658,-1.0,-1,305.53810691833496,None,pp_17,icub,clamp,2021_Dec_23_1616,exp,2021.2.3,59.85048451976821,
right,stop,0,0,0,0,10,0,60,5,306.0670659542084,None,1,0.5873398780822754,306.0670659542084,None,306.7392508983612,None,307.7171678543091,308.0630519390106,307.7171678543091,308.0630519390106,306.7392508983612,None,306.7392508983612,None,306.7392508983612,None,,,0,False,3000.9212493896484,-1.0,-1,311.62184977531433,None,pp_17,icub,clamp,2021_Dec_23_1616,exp,2021.2.3,59.85048451976821,
right,go,0,0,0,0,10,1,61,4,312.1144759654999,None,1,0.829456090927124,312.1144759654999,None,313.0244297981262,None,314.05732798576355,314.41722893714905,314.05732798576355,314.41722893714905,313.0244297981262,None,313.0244297981262,None,313.0244297981262,None,-1,-1,1,True,517.7490711212158,554.6634197235107,right,316.0000159740448,None,pp_17,icub,clamp,2021_Dec_23_1616,exp,2021.2.3,59.85048451976821,
right,go,0,0,0,0,10,2,62,3,316.50592279434204,None,1,4.695001125335693,316.50592279434204,None,321.3016028404236,None,322.3033399581909,322.66696190834045,322.3033399581909,322.66696190834045,321.3016028404236,None,321.3016028404236,None,321.3016028404236,None,-1,-1,1,True,284.75475311279297,645.7674503326416,right,324.12629890441895,None,pp_17,icub,clamp,2021_Dec_23_1616,exp,2021.2.3,59.85048451976821,
right,go,0,0,0,0,10,3,63,3,324.6300950050354,None,1,0.88201904296875,324.6300950050354,None,325.6026909351349,None,326.6356279850006,326.99082684516907,326.6356279850006,326.99082684516907,325.6026909351349,None,325.6026909351349,None,325.6026909351349,None,-1,-1,1,True,376.5392303466797,570.5673694610596,right,328.416708946228,None,pp_17,icub,clamp,2021_Dec_23_1616,exp,2021.2.3,59.85048451976821,
left,stop,0,0,0,0,10,4,64,2,328.9252908229828,None,1,0.7447099685668945,328.9252908229828,None,329.7761240005493,None,330.7793679237366,331.1308569908142,330.7793679237366,331.1308569908142,329.7761240005493,None,329.7761240005493,None,329.7761240005493,None,500,350,0,True,448.27914237976074,690.4540061950684,left,332.8283038139343,None,pp_17,icub,clamp,2021_Dec_23_1616,exp,2021.2.3,59.85048451976821,
left,stop,0,0,0,0,10,5,65,2,333.3241398334503,None,1,1.0688838958740234,333.3241398334503,None,334.4834678173065,None,335.50858783721924,335.85988998413086,335.50858783721924,335.85988998413086,334.4834678173065,None,334.4834678173065,None,334.4834678173065,None,450,350,1,True,237.2579574584961,-1.0,-1,339.6284248828888,None,pp_17,icub,clamp,2021_Dec_23_1616,exp,2021.2.3,59.85048451976821,
left,stop,0,0,0,0,11,0,66,2,340.12080478668213,None,1,0.4015331268310547,340.12080478668213,None,340.6075019836426,None,341.6201169490814,341.950758934021,341.6201169490814,341.950758934021,340.6075019836426,None,340.6075019836426,None,340.6075019836426,None,500,350,1,True,239.2737865447998,-1.0,-1,345.7439339160919,None,pp_17,icub,clamp,2021_Dec_23_1616,exp,2021.2.3,59.85048451976821,
left,go,0,0,0,0,11,1,67,0,346.27695393562317,None,1,0.2853422164916992,346.27695393562317,None,346.6403648853302,None,347.6134309768677,347.96517395973206,347.6134309768677,347.96517395973206,346.6403648853302,None,346.6403648853302,None,346.6403648853302,None,-1,-1,1,True,276.40581130981445,652.916669845581,left,349.4593188762665,None,pp_17,icub,clamp,2021_Dec_23_1616,exp,2021.2.3,59.85048451976821,
left,go,0,0,0,0,11,2,68,1,349.9801027774811,None,1,0.7245240211486816,349.9801027774811,None,350.81410479545593,None,351.82896089553833,352.19635486602783,351.82896089553833,352.19635486602783,350.81410479545593,None,350.81410479545593,None,350.81410479545593,None,-1,-1,1,True,332.2641849517822,644.8836326599121,left,353.69665598869324,None,pp_17,icub,clamp,2021_Dec_23_1616,exp,2021.2.3,59.85048451976821,
left,go,0,0,0,0,11,3,69,0,354.22008299827576,None,1,0.6739490032196045,354.22008299827576,None,355.0063109397888,None,356.0158429145813,356.370600938797,356.0158429145813,356.370600938797,355.0063109397888,None,355.0063109397888,None,355.0063109397888,None,-1,-1,1,True,403.7463665008545,744.0087795257568,left,358.04527378082275,None,pp_17,icub,clamp,2021_Dec_23_1616,exp,2021.2.3,59.85048451976821,
right,go,0,0,0,0,11,4,70,3,358.55445885658264,None,1,0.6224050521850586,358.55445885658264,None,359.2829558849335,None,360.28206300735474,360.63501501083374,360.28206300735474,360.63501501083374,359.2829558849335,None,359.2829558849335,None,359.2829558849335,None,-1,-1,1,True,306.2882423400879,622.9777336120605,right,362.0968358516693,None,pp_17,icub,clamp,2021_Dec_23_1616,exp,2021.2.3,59.85048451976821,
right,stop,0,0,0,0,11,5,71,5,362.59651589393616,None,1,0.607274055480957,362.59651589393616,None,363.3219168186188,None,364.34127593040466,364.696457862854,364.34127593040466,364.696457862854,363.3219168186188,None,363.3219168186188,None,363.3219168186188,None,550,350,0,True,326.5113830566406,479.42495346069336,right,366.0358428955078,None,pp_17,icub,clamp,2021_Dec_23_1616,exp,2021.2.3,59.85048451976821,
left,go,0,0,0,0,12,0,72,0,366.55525183677673,None,1,0.9393501281738281,366.55525183677673,None,367.5951027870178,None,368.60027289390564,368.96517395973206,368.60027289390564,368.96517395973206,367.5951027870178,None,367.5951027870178,None,367.5951027870178,None,-1,-1,1,True,310.6677532196045,638.047456741333,left,370.43904185295105,None,pp_17,icub,clamp,2021_Dec_23_1616,exp,2021.2.3,59.85048451976821,
left,go,0,0,0,0,12,1,73,0,370.9560708999634,None,1,1.1066429615020752,370.9560708999634,None,372.16106700897217,None,373.16483783721924,373.52102994918823,373.16483783721924,373.52102994918823,372.16106700897217,None,372.16106700897217,None,372.16106700897217,None,-1,-1,1,True,385.3294849395752,552.8481006622314,left,374.9901719093323,None,pp_17,icub,clamp,2021_Dec_23_1616,exp,2021.2.3,59.85048451976821,
left,stop,0,0,0,0,12,2,74,2,375.50619077682495,None,1,0.6763949394226074,375.50619077682495,None,376.2928879261017,None,377.3019948005676,377.65646600723267,377.3019948005676,377.65646600723267,376.2928879261017,None,376.2928879261017,None,376.2928879261017,None,550,300,0,True,225.5728244781494,653.8233757019043,left,379.07022500038147,None,pp_17,icub,clamp,2021_Dec_23_1616,exp,2021.2.3,59.85048451976821,
right,stop,0,0,0,0,12,3,75,5,379.59016394615173,None,1,1.3789119720458984,379.59016394615173,None,381.05974197387695,None,382.08803391456604,382.43388080596924,382.08803391456604,382.43388080596924,381.05974197387695,None,381.05974197387695,None,381.05974197387695,None,500,300,0,True,161.9699001312256,519.0548896789551,right,383.63502287864685,None,pp_17,icub,clamp,2021_Dec_23_1616,exp,2021.2.3,59.85048451976821,
left,stop,0,0,0,0,12,4,76,2,384.13898396492004,None,1,1.2166471481323242,384.13898396492004,None,385.4835729598999,None,386.4987349510193,386.84539794921875,386.4987349510193,386.84539794921875,385.4835729598999,None,385.4835729598999,None,385.4835729598999,None,500,250,0,True,244.76861953735352,659.2938899993896,left,388.293340921402,None,pp_17,icub,clamp,2021_Dec_23_1616,exp,2021.2.3,59.85048451976821,
right,stop,0,0,0,0,12,5,77,5,388.8155109882355,None,1,1.3461410999298096,388.8155109882355,None,390.2810938358307,None,391.31297278404236,391.6591229438782,391.31297278404236,391.6591229438782,390.2810938358307,None,390.2810938358307,None,390.2810938358307,None,450,250,1,True,141.88718795776367,-1.0,-1,395.3296539783478,None,pp_17,icub,clamp,2021_Dec_23_1616,exp,2021.2.3,59.85048451976821,
right,stop,1,0,1,0,0,0,0,5,403.6681978702545,None,1,6.607416868209839,403.6681978702545,None,410.35098695755005,None,411.35693287849426,411.6995937824249,411.35693287849426,411.6995937824249,410.35098695755005,None,410.35098695755005,None,410.35098695755005,None,450,300,1,True,530.289888381958,-1.0,-1,415.7651379108429,None,pp_17,icub,clamp,2021_Dec_23_1616,exp,2021.2.3,59.85048451976821,
right,go,1,0,1,0,0,1,1,4,416.296719789505,None,1,0.6353819370269775,416.296719789505,None,417.03103590011597,None,418.0421350002289,418.40113282203674,418.0421350002289,418.40113282203674,417.03103590011597,None,417.03103590011597,None,417.03103590011597,None,-1,-1,1,True,219.15936470031738,577.7745246887207,right,419.72900891304016,None,pp_17,icub,clamp,2021_Dec_23_1616,exp,2021.2.3,59.85048451976821,
right,stop,1,0,1,0,0,2,2,5,420.2527348995209,None,1,0.6711671352386475,420.2527348995209,None,421.00748586654663,None,422.01005482673645,422.3621778488159,422.01005482673645,422.3621778488159,421.00748586654663,None,421.00748586654663,None,421.00748586654663,None,450,350,1,True,327.20470428466797,-1.0,-1,426.2185699939728,None,pp_17,icub,clamp,2021_Dec_23_1616,exp,2021.2.3,59.85048451976821,
right,go,1,0,1,0,0,3,3,3,426.74829292297363,None,1,0.5327551364898682,426.74829292297363,None,427.4198088645935,None,428.4006378650665,428.7530357837677,428.4006378650665,428.7530357837677,427.4198088645935,None,427.4198088645935,None,427.4198088645935,None,-1,-1,1,True,98.05178642272949,654.5395851135254,right,430.0757279396057,None,pp_17,icub,clamp,2021_Dec_23_1616,exp,2021.2.3,59.85048451976821,
right,go,1,0,1,0,0,4,4,3,430.58782982826233,None,1,0.6855580806732178,430.58782982826233,None,431.37790179252625,None,432.3820970058441,432.7418417930603,432.3820970058441,432.7418417930603,431.37790179252625,None,431.37790179252625,None,431.37790179252625,None,-1,-1,1,True,296.0777282714844,618.5619831085205,right,434.18581080436707,None,pp_17,icub,clamp,2021_Dec_23_1616,exp,2021.2.3,59.85048451976821,
left,go,1,0,1,0,0,5,5,1,434.69121193885803,None,1,0.6782979965209961,434.69121193885803,None,435.46070289611816,None,436.46709299087524,436.811203956604,436.46709299087524,436.811203956604,435.46070289611816,None,435.46070289611816,None,435.46070289611816,None,-1,-1,1,True,353.47461700439453,513.5793685913086,left,438.2029809951782,None,pp_17,icub,clamp,2021_Dec_23_1616,exp,2021.2.3,59.85048451976821,
right,stop,1,0,1,0,1,0,6,5,438.71109199523926,None,1,0.7354049682617188,438.71109199523926,None,439.56204199790955,None,440.59184193611145,440.9474837779999,440.59184193611145,440.9474837779999,439.56204199790955,None,439.56204199790955,None,439.56204199790955,None,450,400,1,True,400.592565536499,-1.0,-1,444.86666893959045,None,pp_17,icub,clamp,2021_Dec_23_1616,exp,2021.2.3,59.85048451976821,
right,go,1,0,1,0,1,1,7,4,445.3965389728546,None,1,0.3044419288635254,445.3965389728546,None,445.8226158618927,None,446.83753180503845,447.180104970932,446.83753180503845,447.180104970932,445.8226158618927,None,445.8226158618927,None,445.8226158618927,None,-1,-1,1,True,252.87222862243652,565.5102729797363,right,448.53697085380554,None,pp_17,icub,clamp,2021_Dec_23_1616,exp,2021.2.3,59.85048451976821,
left,stop,1,0,1,0,1,2,8,2,449.0439817905426,None,1,0.595391035079956,449.0439817905426,None,449.7676169872284,None,450.7621169090271,451.1177189350128,450.7621169090271,451.1177189350128,449.7676169872284,None,449.7676169872284,None,449.7676169872284,None,450,450,0,True,599.247932434082,495.3129291534424,left,452.7450358867645,None,pp_17,icub,clamp,2021_Dec_23_1616,exp,2021.2.3,59.85048451976821,
right,go,1,0,1,0,1,3,9,4,453.25898599624634,None,1,0.9395201206207275,453.25898599624634,None,454.29238080978394,None,455.32052087783813,455.67472290992737,455.32052087783813,455.67472290992737,454.29238080978394,None,454.29238080978394,None,454.29238080978394,None,-1,-1,1,True,224.3642807006836,558.0048561096191,right,456.9885838031769,None,pp_17,icub,clamp,2021_Dec_23_1616,exp,2021.2.3,59.85048451976821,
left,go,1,0,1,0,1,4,10,0,457.5076057910919,None,1,0.6226778030395508,457.5076057910919,None,458.2364158630371,None,459.23269987106323,459.58599495887756,459.23269987106323,459.58599495887756,458.2364158630371,None,458.2364158630371,None,458.2364158630371,None,-1,-1,1,True,244.28224563598633,615.1649951934814,left,460.97678780555725,None,pp_17,icub,clamp,2021_Dec_23_1616,exp,2021.2.3,59.85048451976821,
left,go,1,0,1,0,1,5,11,1,461.5002717971802,None,1,0.804793119430542,461.5002717971802,None,462.40875697135925,None,463.44122886657715,463.78315591812134,463.44122886657715,463.78315591812134,462.40875697135925,None,462.40875697135925,None,462.40875697135925,None,-1,-1,1,True,160.53438186645508,631.1640739440918,left,465.09116983413696,None,pp_17,icub,clamp,2021_Dec_23_1616,exp,2021.2.3,59.85048451976821,
left,go,1,0,1,0,2,0,12,0,465.6234769821167,None,1,0.5937449932098389,465.6234769821167,None,466.29257678985596,None,467.2842149734497,467.610643863678,467.2842149734497,467.610643863678,466.29257678985596,None,466.29257678985596,None,466.29257678985596,None,-1,-1,1,True,427.8564453125,644.8867321014404,left,469.24201583862305,None,pp_17,icub,clamp,2021_Dec_23_1616,exp,2021.2.3,59.85048451976821,
left,go,1,0,1,0,2,1,13,0,469.7599449157715,None,1,0.8080971240997314,469.7599449157715,None,470.69568490982056,None,471.6998679637909,472.0625479221344,471.6998679637909,472.0625479221344,470.69568490982056,None,470.69568490982056,None,470.69568490982056,None,-1,-1,1,True,219.37298774719238,639.756441116333,left,473.4507567882538,None,pp_17,icub,clamp,2021_Dec_23_1616,exp,2021.2.3,59.85048451976821,
left,go,1,0,1,0,2,2,14,1,473.9757478237152,None,1,0.5688610076904297,473.9757478237152,None,474.645103931427,None,475.6517779827118,476.0030858516693,475.6517779827118,476.0030858516693,474.645103931427,None,474.645103931427,None,474.645103931427,None,-1,-1,1,True,369.6017265319824,590.3830528259277,left,477.5077588558197,None,pp_17,icub,clamp,2021_Dec_23_1616,exp,2021.2.3,59.85048451976821,
right,go,1,0,1,0,2,3,15,3,478.03910279273987,None,1,0.6814651489257812,478.03910279273987,None,478.8108808994293,None,479.82368183135986,480.17864084243774,479.82368183135986,480.17864084243774,478.8108808994293,None,478.8108808994293,None,478.8108808994293,None,-1,-1,1,True,357.76829719543457,510.26225090026855,right,481.55969500541687,None,pp_17,icub,clamp,2021_Dec_23_1616,exp,2021.2.3,59.85048451976821,
right,go,1,0,1,0,2,4,16,4,482.0696737766266,None,1,0.5055911540985107,482.0696737766266,None,482.6756148338318,None,483.68437099456787,484.04007387161255,483.68437099456787,484.04007387161255,482.6756148338318,None,482.6756148338318,None,482.6756148338318,None,-1,-1,1,True,289.69812393188477,609.4355583190918,right,485.4707279205322,None,pp_17,icub,clamp,2021_Dec_23_1616,exp,2021.2.3,59.85048451976821,
left,stop,1,0,1,0,2,5,17,2,485.9795398712158,None,1,0.5849599838256836,485.9795398712158,None,486.64493680000305,None,487.6647598743439,488.01471185684204,487.6647598743439,488.01471185684204,486.64493680000305,None,486.64493680000305,None,486.64493680000305,None,400,450,0,True,285.33148765563965,558.9809417724609,left,489.38997077941895,None,pp_17,icub,clamp,2021_Dec_23_1616,exp,2021.2.3,59.85048451976821,
left,stop,1,0,1,0,3,0,18,2,489.9253308773041,None,1,1.1919491291046143,489.9253308773041,None,491.20784091949463,None,492.2063717842102,492.55219197273254,492.2063717842102,492.55219197273254,491.20784091949463,None,491.20784091949463,None,491.20784091949463,None,350,450,1,True,304.93831634521484,-1.0,-1,496.4263708591461,None,pp_17,icub,clamp,2021_Dec_23_1616,exp,2021.2.3,59.85048451976821,
left,stop,1,0,1,0,3,1,19,2,496.9181067943573,None,1,0.7886440753936768,496.9181067943573,None,497.83711886405945,None,498.8212947845459,499.1796188354492,498.8212947845459,499.1796188354492,497.83711886405945,None,497.83711886405945,None,497.83711886405945,None,400,450,0,True,384.8869800567627,567.6612854003906,left,500.6569848060608,None,pp_17,icub,clamp,2021_Dec_23_1616,exp,2021.2.3,59.85048451976821,
right,stop,1,0,1,0,3,2,20,5,501.16534399986267,None,1,1.7398180961608887,501.16534399986267,None,503.00585889816284,None,503.99500799179077,504.3630349636078,503.99500799179077,504.3630349636078,503.00585889816284,None,503.00585889816284,None,503.00585889816284,None,350,450,0,True,442.9922103881836,564.0091896057129,right,505.90227699279785,None,pp_17,icub,clamp,2021_Dec_23_1616,exp,2021.2.3,59.85048451976821,
right,go,1,0,1,0,3,3,21,3,506.4104549884796,None,1,1.6366369724273682,506.4104549884796,None,508.1274709701538,None,509.1245119571686,509.47938680648804,509.1245119571686,509.47938680648804,508.1274709701538,None,508.1274709701538,None,508.1274709701538,None,-1,-1,1,True,387.6347541809082,665.2710437774658,right,511.0576899051666,None,pp_17,icub,clamp,2021_Dec_23_1616,exp,2021.2.3,59.85048451976821,
left,go,1,0,1,0,3,4,22,1,511.57671189308167,None,1,0.7680480480194092,511.57671189308167,None,512.4525508880615,None,513.4675629138947,513.8153100013733,513.4675629138947,513.8153100013733,512.4525508880615,None,512.4525508880615,None,512.4525508880615,None,-1,-1,1,True,310.5297088623047,598.8597869873047,left,515.2697229385376,None,pp_17,icub,clamp,2021_Dec_23_1616,exp,2021.2.3,59.85048451976821,
left,go,1,0,1,0,3,5,23,1,515.7814447879791,None,1,0.9388139247894287,515.7814447879791,None,516.8156998157501,None,517.8245069980621,518.169303894043,517.8245069980621,518.169303894043,516.8156998157501,None,516.8156998157501,None,516.8156998157501,None,-1,-1,1,True,360.95643043518066,616.6558265686035,left,519.6663339138031,None,pp_17,icub,clamp,2021_Dec_23_1616,exp,2021.2.3,59.85048451976821,
right,go,1,0,1,0,4,0,24,3,520.169716835022,None,1,0.8238799571990967,520.169716835022,None,521.0789489746094,None,522.091710805893,522.4604988098145,522.091710805893,522.4604988098145,521.0789489746094,None,521.0789489746094,None,521.0789489746094,None,-1,-1,1,True,339.3375873565674,591.2401676177979,right,523.8807737827301,None,pp_17,icub,clamp,2021_Dec_23_1616,exp,2021.2.3,59.85048451976821,
left,go,1,0,1,0,4,1,25,0,524.4006659984589,None,1,0.7686119079589844,524.4006659984589,None,525.2496190071106,None,526.2518408298492,526.6216909885406,526.2518408298492,526.6216909885406,525.2496190071106,None,525.2496190071106,None,525.2496190071106,None,-1,-1,1,True,358.9475154876709,589.9567604064941,left,528.1007258892059,None,pp_17,icub,clamp,2021_Dec_23_1616,exp,2021.2.3,59.85048451976821,
right,stop,1,0,1,0,4,2,26,5,528.6319198608398,None,1,0.6023519039154053,528.6319198608398,None,529.3575758934021,None,530.3836419582367,530.7260718345642,530.3836419582367,530.7260718345642,529.3575758934021,None,529.3575758934021,None,529.3575758934021,None,350,400,0,True,458.6513042449951,507.8721046447754,right,532.21142578125,None,pp_17,icub,clamp,2021_Dec_23_1616,exp,2021.2.3,59.85048451976821,
right,go,1,0,1,0,4,3,27,4,532.72864985466,None,1,1.584801197052002,532.72864985466,None,534.4011747837067,None,535.4040749073029,535.7481479644775,535.4040749073029,535.7481479644775,534.4011747837067,None,534.4011747837067,None,534.4011747837067,None,-1,-1,1,True,214.5214080810547,666.5737628936768,right,537.1645138263702,None,pp_17,icub,clamp,2021_Dec_23_1616,exp,2021.2.3,59.85048451976821,
left,go,1,0,1,0,4,4,28,1,537.6861608028412,None,1,0.7089290618896484,537.6861608028412,None,538.475469827652,None,539.4924550056458,539.8513770103455,539.4924550056458,539.8513770103455,538.475469827652,None,538.475469827652,None,538.475469827652,None,-1,-1,1,True,462.2836112976074,596.7617034912109,left,541.432904958725,None,pp_17,icub,clamp,2021_Dec_23_1616,exp,2021.2.3,59.85048451976821,
right,go,1,0,1,0,4,5,29,3,541.9374389648438,None,1,0.4806640148162842,541.9374389648438,None,542.5418047904968,None,543.5500137805939,543.904543876648,543.5500137805939,543.904543876648,542.5418047904968,None,542.5418047904968,None,542.5418047904968,None,-1,-1,1,True,302.88195610046387,553.4262657165527,right,545.2848107814789,None,pp_17,icub,clamp,2021_Dec_23_1616,exp,2021.2.3,59.85048451976821,
right,go,1,0,1,0,5,0,30,4,545.8006939888,None,1,0.9993689060211182,545.8006939888,None,546.9003708362579,None,547.9184999465942,548.27894282341,547.9184999465942,548.27894282341,546.9003708362579,None,546.9003708362579,None,546.9003708362579,None,-1,-1,1,True,379.50730323791504,566.7116641998291,right,549.7327408790588,None,pp_17,icub,clamp,2021_Dec_23_1616,exp,2021.2.3,59.85048451976821,
left,go,1,0,1,0,5,1,31,0,550.2563798427582,None,1,0.6705307960510254,550.2563798427582,None,551.0436298847198,None,552.059868812561,552.4264109134674,552.059868812561,552.4264109134674,551.0436298847198,None,551.0436298847198,None,551.0436298847198,None,-1,-1,1,True,466.40467643737793,507.10296630859375,left,553.889527797699,None,pp_17,icub,clamp,2021_Dec_23_1616,exp,2021.2.3,59.85048451976821,
left,stop,1,0,1,0,5,2,32,2,554.4077098369598,None,1,0.8442161083221436,554.4077098369598,None,555.3772599697113,None,556.4057908058167,556.749675989151,556.4057908058167,556.749675989151,555.3772599697113,None,555.3772599697113,None,555.3772599697113,None,350,350,0,True,294.01135444641113,648.5702991485596,left,558.2055428028107,None,pp_17,icub,clamp,2021_Dec_23_1616,exp,2021.2.3,59.85048451976821,
right,go,1,0,1,0,5,3,33,4,558.7211439609528,None,1,1.6904640197753906,558.7211439609528,None,560.4938108921051,None,561.4992008209229,561.8598899841309,561.4992008209229,561.8598899841309,560.4938108921051,None,560.4938108921051,None,560.4938108921051,None,-1,-1,1,True,302.0017147064209,517.9872512817383,right,563.2156357765198,None,pp_17,icub,clamp,2021_Dec_23_1616,exp,2021.2.3,59.85048451976821,
right,go,1,0,1,0,5,4,34,3,563.7261278629303,None,1,0.7277400493621826,563.7261278629303,None,564.5781908035278,None,565.6121490001678,565.9590089321136,565.6121490001678,565.9590089321136,564.5781908035278,None,564.5781908035278,None,564.5781908035278,None,-1,-1,1,True,360.75448989868164,481.20570182800293,right,567.32541680336,None,pp_17,icub,clamp,2021_Dec_23_1616,exp,2021.2.3,59.85048451976821,
right,stop,1,0,1,0,5,5,35,5,567.8339757919312,None,1,0.8159849643707275,567.8339757919312,None,568.7453129291534,None,569.7562777996063,570.1164917945862,569.7562777996063,570.1164917945862,568.7453129291534,None,568.7453129291534,None,568.7453129291534,None,300,350,1,True,383.1038475036621,-1.0,-1,574.0229518413544,None,pp_17,icub,clamp,2021_Dec_23_1616,exp,2021.2.3,59.85048451976821,
left,stop,1,0,1,0,6,0,36,2,574.553918838501,None,1,0.32666707038879395,574.553918838501,None,574.9804348945618,None,575.9907310009003,576.3483049869537,575.9907310009003,576.3483049869537,574.9804348945618,None,574.9804348945618,None,574.9804348945618,None,300,400,1,True,93.67561340332031,-1.0,-1,579.9696989059448,None,pp_17,icub,clamp,2021_Dec_23_1616,exp,2021.2.3,59.85048451976821,
left,go,1,0,1,0,6,1,37,1,580.4997379779816,None,1,0.45780491828918457,580.4997379779816,None,581.0515649318695,None,582.0302379131317,582.3650178909302,582.0302379131317,582.3650178909302,581.0515649318695,None,581.0515649318695,None,581.0515649318695,None,-1,-1,1,True,286.8919372558594,592.2319889068604,left,583.8161787986755,None,pp_17,icub,clamp,2021_Dec_23_1616,exp,2021.2.3,59.85048451976821,
left,go,1,0,1,0,6,2,38,0,584.3342769145966,None,1,0.7913951873779297,584.3342769145966,None,585.2410938739777,None,586.2745537757874,586.6278169155121,586.2745537757874,586.6278169155121,585.2410938739777,None,585.2410938739777,None,585.2410938739777,None,-1,-1,1,True,327.75139808654785,563.7075901031494,left,588.0193378925323,None,pp_17,icub,clamp,2021_Dec_23_1616,exp,2021.2.3,59.85048451976821,
left,stop,1,0,1,0,6,3,39,2,588.5216767787933,None,1,0.851140022277832,588.5216767787933,None,589.4823319911957,None,590.489453792572,590.8478009700775,590.489453792572,590.8478009700775,589.4823319911957,None,589.4823319911957,None,589.4823319911957,None,350,400,1,True,218.37329864501953,-1.0,-1,594.5852839946747,None,pp_17,icub,clamp,2021_Dec_23_1616,exp,2021.2.3,59.85048451976821,
right,go,1,0,1,0,6,4,40,3,595.1163778305054,None,1,0.3901329040527344,595.1163778305054,None,595.6042687892914,None,596.5864639282227,596.9524278640747,596.5864639282227,596.9524278640747,595.6042687892914,None,595.6042687892914,None,595.6042687892914,None,-1,-1,1,True,141.69764518737793,450.11377334594727,right,598.0684928894043,None,pp_17,icub,clamp,2021_Dec_23_1616,exp,2021.2.3,59.85048451976821,
right,go,1,0,1,0,6,5,41,3,598.5774309635162,None,1,0.5696539878845215,598.5774309635162,None,599.2390379905701,None,600.2517139911652,600.6048738956451,600.2517139911652,600.6048738956451,599.2390379905701,None,599.2390379905701,None,599.2390379905701,None,-1,-1,1,True,85.73389053344727,478.6186218261719,right,601.7004928588867,None,pp_17,icub,clamp,2021_Dec_23_1616,exp,2021.2.3,59.85048451976821,
left,stop,1,0,1,0,7,0,42,2,602.2091879844666,None,1,0.6107659339904785,602.2091879844666,None,602.9329237937927,None,603.935507774353,604.289568901062,603.935507774353,604.289568901062,602.9329237937927,None,602.9329237937927,None,602.9329237937927,None,400,400,0,True,273.99587631225586,563.7578964233398,left,605.6545598506927,None,pp_17,icub,clamp,2021_Dec_23_1616,exp,2021.2.3,59.85048451976821,
left,go,1,0,1,0,7,1,43,0,606.1926348209381,None,1,2.346130132675171,606.1926348209381,None,608.6452288627625,None,609.6516728401184,609.9991869926453,609.6516728401184,609.9991869926453,608.6452288627625,None,608.6452288627625,None,608.6452288627625,None,-1,-1,1,True,274.4710445404053,553.8508892059326,left,611.3880288600922,None,pp_17,icub,clamp,2021_Dec_23_1616,exp,2021.2.3,59.85048451976821,
right,go,1,0,1,0,7,2,44,4,611.8978328704834,None,1,0.4591519832611084,611.8978328704834,None,612.442305803299,None,613.4340438842773,613.8038418292999,613.4340438842773,613.8038418292999,612.442305803299,None,612.442305803299,None,612.442305803299,None,-1,-1,1,True,524.1775512695312,469.82884407043457,right,615.3235709667206,None,pp_17,icub,clamp,2021_Dec_23_1616,exp,2021.2.3,59.85048451976821,
right,stop,1,0,1,0,7,3,45,5,615.8617057800293,None,1,0.4431190490722656,615.8617057800293,None,616.4046738147736,None,617.4239130020142,617.7761027812958,617.4239130020142,617.7761027812958,616.4046738147736,None,616.4046738147736,None,616.4046738147736,None,350,400,0,True,243.3450222015381,581.1100006103516,right,619.1291937828064,None,pp_17,icub,clamp,2021_Dec_23_1616,exp,2021.2.3,59.85048451976821,
right,stop,1,0,1,0,7,4,46,5,619.6502618789673,None,1,1.6584999561309814,619.6502618789673,None,621.4239089488983,None,622.4272019863129,622.7740519046783,622.4272019863129,622.7740519046783,621.4239089488983,None,621.4239089488983,None,621.4239089488983,None,350,350,1,True,292.391300201416,-1.0,-1,626.6060049533844,None,pp_17,icub,clamp,2021_Dec_23_1616,exp,2021.2.3,59.85048451976821,
right,go,1,0,1,0,7,5,47,4,627.0984358787537,None,1,0.33101320266723633,627.0984358787537,None,627.5240859985352,None,628.4979238510132,628.8368999958038,628.4979238510132,628.8368999958038,627.5240859985352,None,627.5240859985352,None,627.5240859985352,None,-1,-1,1,True,402.0693302154541,562.9105567932129,right,630.351940870285,None,pp_17,icub,clamp,2021_Dec_23_1616,exp,2021.2.3,59.85048451976821,
right,go,1,0,1,0,8,0,48,4,630.8707218170166,None,1,1.1977360248565674,630.8707218170166,None,632.1538188457489,None,633.1507458686829,633.5062158107758,633.1507458686829,633.5062158107758,632.1538188457489,None,632.1538188457489,None,632.1538188457489,None,-1,-1,1,True,414.5369529724121,544.151782989502,right,635.0096127986908,None,pp_17,icub,clamp,2021_Dec_23_1616,exp,2021.2.3,59.85048451976821,
right,stop,1,0,1,0,8,1,49,5,635.5269289016724,None,1,0.7496058940887451,635.5269289016724,None,636.3745019435883,None,637.4063408374786,637.7547237873077,637.4063408374786,637.7547237873077,636.3745019435883,None,636.3745019435883,None,636.3745019435883,None,350,400,0,True,275.3942012786865,560.8823299407959,right,639.0916738510132,None,pp_17,icub,clamp,2021_Dec_23_1616,exp,2021.2.3,59.85048451976821,
left,stop,1,0,1,0,8,2,50,2,639.6271498203278,None,1,1.1163928508758545,639.6271498203278,None,640.84929895401,None,641.8601498603821,642.202455997467,641.8601498603821,642.202455997467,640.84929895401,None,640.84929895401,None,640.84929895401,None,350,350,1,True,354.94279861450195,-1.0,-1,646.0865387916565,None,pp_17,icub,clamp,2021_Dec_23_1616,exp,2021.2.3,59.85048451976821,
right,go,1,0,1,0,8,3,51,4,646.580237865448,None,1,0.5940859317779541,646.580237865448,None,647.2575528621674,None,648.2359669208527,648.5976088047028,648.2359669208527,648.5976088047028,647.2575528621674,None,647.2575528621674,None,647.2575528621674,None,-1,-1,1,True,277.58193016052246,511.72685623168945,right,649.920236825943,None,pp_17,icub,clamp,2021_Dec_23_1616,exp,2021.2.3,59.85048451976821,
right,go,1,0,1,0,8,4,52,4,650.4444518089294,None,1,0.655432939529419,650.4444518089294,None,651.227157831192,None,652.255117893219,652.6045978069305,652.255117893219,652.6045978069305,651.227157831192,None,651.227157831192,None,651.227157831192,None,-1,-1,1,True,308.60257148742676,520.7619667053223,right,653.9591748714447,None,pp_17,icub,clamp,2021_Dec_23_1616,exp,2021.2.3,59.85048451976821,
left,go,1,0,1,0,8,5,53,1,654.4666938781738,None,1,0.5829739570617676,654.4666938781738,None,655.1348979473114,None,656.1347517967224,656.4804089069366,656.1347517967224,656.4804089069366,655.1348979473114,None,655.1348979473114,None,655.1348979473114,None,-1,-1,1,True,366.5475845336914,552.0858764648438,left,657.9234027862549,None,pp_17,icub,clamp,2021_Dec_23_1616,exp,2021.2.3,59.85048451976821,
left,go,1,0,1,0,9,0,54,0,658.4301137924194,None,1,0.646467924118042,658.4301137924194,None,659.156909942627,None,660.1543259620667,660.5157868862152,660.1543259620667,660.5157868862152,659.156909942627,None,659.156909942627,None,659.156909942627,None,-1,-1,1,True,319.9276924133301,599.1737842559814,left,661.9573159217834,None,pp_17,icub,clamp,2021_Dec_23_1616,exp,2021.2.3,59.85048451976821,
right,go,1,0,1,0,9,1,55,3,662.4637699127197,None,1,0.7770371437072754,662.4637699127197,None,663.3110299110413,None,664.3270978927612,664.6913478374481,664.3270978927612,664.6913478374481,663.3110299110413,None,663.3110299110413,None,663.3110299110413,None,-1,-1,1,True,363.6929988861084,579.5531272888184,right,666.1246409416199,None,pp_17,icub,clamp,2021_Dec_23_1616,exp,2021.2.3,59.85048451976821,
left,go,1,0,1,0,9,2,56,1,666.6513350009918,None,1,0.8473570346832275,666.6513350009918,None,667.623382806778,None,668.6274979114532,668.9758429527283,668.6274979114532,668.9758429527283,667.623382806778,None,667.623382806778,None,667.623382806778,None,-1,-1,1,True,439.5408630371094,621.3994026184082,left,670.5670239925385,None,pp_17,icub,clamp,2021_Dec_23_1616,exp,2021.2.3,59.85048451976821,
right,stop,1,0,1,0,9,3,57,5,671.083967924118,None,1,0.7866010665893555,671.083967924118,None,671.9820749759674,None,673.0098028182983,673.352217912674,673.0098028182983,673.352217912674,671.9820749759674,None,671.9820749759674,None,671.9820749759674,None,400,350,1,True,504.7481060028076,-1.0,-1,677.3782379627228,None,pp_17,icub,clamp,2021_Dec_23_1616,exp,2021.2.3,59.85048451976821,
left,go,1,0,1,0,9,4,58,0,677.908460855484,None,1,0.5936539173126221,677.908460855484,None,678.6338880062103,None,679.6446018218994,680.0055239200592,679.6446018218994,680.0055239200592,678.6338880062103,None,678.6338880062103,None,678.6338880062103,None,-1,-1,1,True,327.0108699798584,593.982458114624,left,681.4498898983002,None,pp_17,icub,clamp,2021_Dec_23_1616,exp,2021.2.3,59.85048451976821,
left,go,1,0,1,0,9,5,59,0,681.972512960434,None,1,1.179203987121582,681.972512960434,None,683.2574288845062,None,684.2663059234619,684.632495880127,684.2663059234619,684.632495880127,683.2574288845062,None,683.2574288845062,None,683.2574288845062,None,-1,-1,1,True,338.5484218597412,537.7583503723145,left,686.0378258228302,None,pp_17,icub,clamp,2021_Dec_23_1616,exp,2021.2.3,59.85048451976821,
left,go,1,0,1,0,10,0,60,1,686.5698499679565,None,1,0.9427809715270996,686.5698499679565,None,687.603049993515,None,688.6036379337311,688.9596738815308,688.6036379337311,688.9596738815308,687.603049993515,None,687.603049993515,None,687.603049993515,None,-1,-1,1,True,496.6464042663574,669.5454120635986,left,690.6482629776001,None,pp_17,icub,clamp,2021_Dec_23_1616,exp,2021.2.3,59.85048451976821,
left,stop,1,0,1,0,10,1,61,2,691.1540808677673,None,1,0.9515290260314941,691.1540808677673,None,692.1881418228149,None,693.1905229091644,693.533971786499,693.1905229091644,693.533971786499,692.1881418228149,None,692.1881418228149,None,692.1881418228149,None,400,400,0,True,664.2105579376221,541.3961410522461,left,695.3052787780762,None,pp_17,icub,clamp,2021_Dec_23_1616,exp,2021.2.3,59.85048451976821,
right,stop,1,0,1,0,10,2,62,5,695.8059279918671,None,1,1.2274971008300781,695.8059279918671,None,697.1485209465027,None,698.1770107746124,698.5330739021301,698.1770107746124,698.5330739021301,697.1485209465027,None,697.1485209465027,None,697.1485209465027,None,350,400,0,True,248.64435195922852,572.904109954834,right,699.8360948562622,None,pp_17,icub,clamp,2021_Dec_23_1616,exp,2021.2.3,59.85048451976821,
left,go,1,0,1,0,10,3,63,1,700.3506679534912,None,1,1.0957801342010498,700.3506679534912,None,701.5700228214264,None,702.5698018074036,702.9128868579865,702.5698018074036,702.9128868579865,701.5700228214264,None,701.5700228214264,None,701.5700228214264,None,-1,-1,1,True,304.3985366821289,675.0283241271973,left,704.4191379547119,None,pp_17,icub,clamp,2021_Dec_23_1616,exp,2021.2.3,59.85048451976821,
left,stop,1,0,1,0,10,4,64,2,704.9378929138184,None,1,0.7767670154571533,704.9378929138184,None,705.7900338172913,None,706.7965078353882,707.1527400016785,706.7965078353882,707.1527400016785,705.7900338172913,None,705.7900338172913,None,705.7900338172913,None,350,350,1,True,467.03314781188965,-1.0,-1,711.1504638195038,None,pp_17,icub,clamp,2021_Dec_23_1616,exp,2021.2.3,59.85048451976821,
left,stop,1,0,1,0,10,5,65,2,711.680969953537,None,1,0.4779939651489258,711.680969953537,None,712.2926108837128,None,713.2715239524841,713.6233777999878,713.2715239524841,713.6233777999878,712.2926108837128,None,712.2926108837128,None,712.2926108837128,None,400,350,1,True,244.8253631591797,-1.0,-1,717.4304549694061,None,pp_17,icub,clamp,2021_Dec_23_1616,exp,2021.2.3,59.85048451976821,
right,go,1,0,1,0,11,0,66,3,717.959324836731,None,1,0.44251203536987305,717.959324836731,None,718.5076038837433,None,719.4878978729248,719.853563785553,719.4878978729248,719.853563785553,718.5076038837433,None,718.5076038837433,None,718.5076038837433,None,-1,-1,1,True,293.2162284851074,592.8151607513428,right,721.2689809799194,None,pp_17,icub,clamp,2021_Dec_23_1616,exp,2021.2.3,59.85048451976821,
left,go,1,0,1,0,11,1,67,0,721.784322977066,None,1,0.6560170650482178,721.784322977066,None,722.5688388347626,None,723.5571568012238,723.9143857955933,723.5571568012238,723.9143857955933,722.5688388347626,None,722.5688388347626,None,722.5688388347626,None,-1,-1,1,True,334.37228202819824,639.5235061645508,left,725.4479157924652,None,pp_17,icub,clamp,2021_Dec_23_1616,exp,2021.2.3,59.85048451976821,
left,stop,1,0,1,0,11,2,68,2,725.9816288948059,None,1,0.8435771465301514,725.9816288948059,None,726.9490878582001,None,727.973879814148,728.3176689147949,727.973879814148,728.3176689147949,726.9490878582001,None,726.9490878582001,None,726.9490878582001,None,450,350,0,True,314.3272399902344,586.5740776062012,left,729.7463188171387,None,pp_17,icub,clamp,2021_Dec_23_1616,exp,2021.2.3,59.85048451976821,
right,go,1,0,1,0,11,3,69,3,730.248596906662,None,1,1.2087159156799316,730.248596906662,None,731.5844769477844,None,732.5957019329071,732.9484539031982,732.5957019329071,732.9484539031982,731.5844769477844,None,731.5844769477844,None,731.5844769477844,None,-1,-1,1,True,302.62160301208496,538.1710529327393,right,734.3103239536285,None,pp_17,icub,clamp,2021_Dec_23_1616,exp,2021.2.3,59.85048451976821,
right,go,1,0,1,0,11,4,70,4,734.8343648910522,None,1,0.820385217666626,734.8343648910522,None,735.73952293396,None,736.7396478652954,737.1033809185028,736.7396478652954,737.1033809185028,735.73952293396,None,735.73952293396,None,735.73952293396,None,,,0,False,3000.697612762451,-1.0,-1,740.6240530014038,None,pp_17,icub,clamp,2021_Dec_23_1616,exp,2021.2.3,59.85048451976821,
right,go,1,0,1,0,11,5,71,3,741.1181228160858,None,1,0.7772419452667236,741.1181228160858,None,742.0280108451843,None,743.0411069393158,743.3961989879608,743.0411069393158,743.3961989879608,742.0280108451843,None,742.0280108451843,None,742.0280108451843,None,-1,-1,1,True,282.3352813720703,617.2146797180176,right,744.8206558227539,None,pp_17,icub,clamp,2021_Dec_23_1616,exp,2021.2.3,59.85048451976821,
left,go,1,0,1,0,12,0,72,1,745.3589868545532,None,1,0.6483569145202637,745.3589868545532,None,746.087956905365,None,747.0974678993225,747.4474778175354,747.0974678993225,747.4474778175354,746.087956905365,None,746.087956905365,None,746.087956905365,None,-1,-1,1,True,619.2846298217773,621.9887733459473,left,749.2029678821564,None,pp_17,icub,clamp,2021_Dec_23_1616,exp,2021.2.3,59.85048451976821,
right,stop,1,0,1,0,12,1,73,5,749.7233619689941,None,1,0.7752189636230469,749.7233619689941,None,750.5741529464722,None,751.5507509708405,751.8993198871613,751.5507509708405,751.8993198871613,750.5741529464722,None,750.5741529464722,None,750.5741529464722,None,400,350,1,True,297.18565940856934,-1.0,-1,755.762580871582,None,pp_17,icub,clamp,2021_Dec_23_1616,exp,2021.2.3,59.85048451976821,
left,go,1,0,1,0,12,2,74,0,756.2940239906311,None,1,0.3888881206512451,756.2940239906311,None,756.7817599773407,None,757.7615039348602,758.1151328086853,757.7615039348602,758.1151328086853,756.7817599773407,None,756.7817599773407,None,756.7817599773407,None,-1,-1,1,True,296.461820602417,577.7182579040527,left,759.5206899642944,None,pp_17,icub,clamp,2021_Dec_23_1616,exp,2021.2.3,59.85048451976821,
right,stop,1,0,1,0,12,3,75,5,760.0381178855896,None,1,0.6219689846038818,760.0381178855896,None,760.7871890068054,None,761.787829875946,762.1353209018707,761.787829875946,762.1353209018707,760.7871890068054,None,760.7871890068054,None,760.7871890068054,None,400,400,0,True,415.4353141784668,563.8382434844971,right,763.6758499145508,None,pp_17,icub,clamp,2021_Dec_23_1616,exp,2021.2.3,59.85048451976821,
left,go,1,0,1,0,12,4,76,1,764.204981803894,None,1,1.1726388931274414,764.204981803894,None,765.4886047840118,None,766.5129718780518,766.873783826828,766.5129718780518,766.873783826828,765.4886047840118,None,765.4886047840118,None,765.4886047840118,None,-1,-1,1,True,405.2543640136719,645.7412242889404,left,768.4558730125427,None,pp_17,icub,clamp,2021_Dec_23_1616,exp,2021.2.3,59.85048451976821,
left,go,1,0,1,0,12,5,77,0,768.9708828926086,None,1,1.0305109024047852,768.9708828926086,None,770.1302318572998,None,771.1514527797699,771.503007888794,771.1514527797699,771.503007888794,770.1302318572998,None,770.1302318572998,None,770.1302318572998,None,-1,-1,1,True,400.8781909942627,618.2146072387695,left,773.0267069339752,None,pp_17,icub,clamp,2021_Dec_23_1616,exp,2021.2.3,59.85048451976821,
left,stop,2,0,2,0,0,0,0,2,779.9327340126038,None,1,15.385383129119873,779.9327340126038,None,795.4242978096008,None,796.4401199817657,796.8023610115051,796.4401199817657,796.8023610115051,795.4242978096008,None,795.4242978096008,None,795.4242978096008,None,400,350,0,True,477.5805473327637,589.1549587249756,left,798.406152009964,None,pp_17,icub,clamp,2021_Dec_23_1616,exp,2021.2.3,59.85048451976821,
left,stop,2,0,2,0,0,1,1,2,798.9359488487244,None,1,2.1632418632507324,798.9359488487244,None,801.2020428180695,None,802.2158069610596,802.5599479675293,802.2158069610596,802.5599479675293,801.2020428180695,None,801.2020428180695,None,801.2020428180695,None,350,350,1,True,323.56739044189453,-1.0,-1,806.418751001358,None,pp_17,icub,clamp,2021_Dec_23_1616,exp,2021.2.3,59.85048451976821,
left,stop,2,0,2,0,0,2,2,2,806.9128069877625,None,1,0.3628201484680176,806.9128069877625,None,807.4023540019989,None,808.3753869533539,808.7323508262634,808.3753869533539,808.7323508262634,807.4023540019989,None,807.4023540019989,None,807.4023540019989,None,400,350,0,True,466.660737991333,666.8350696563721,left,810.4425368309021,None,pp_17,icub,clamp,2021_Dec_23_1616,exp,2021.2.3,59.85048451976821,
left,go,2,0,2,0,0,3,3,0,810.9720239639282,None,1,1.799250841140747,810.9720239639282,None,812.8711810112,None,813.8648729324341,814.2146899700165,813.8648729324341,814.2146899700165,812.8711810112,None,812.8711810112,None,812.8711810112,None,-1,-1,1,True,399.12986755371094,628.4685134887695,left,815.7668859958649,None,pp_17,icub,clamp,2021_Dec_23_1616,exp,2021.2.3,59.85048451976821,
left,go,2,0,2,0,0,4,4,1,816.2820749282837,None,1,0.9412641525268555,816.2820749282837,None,817.3189189434052,None,818.3302729129791,818.6836769580841,818.3302729129791,818.6836769580841,817.3189189434052,None,817.3189189434052,None,817.3189189434052,None,-1,-1,1,True,334.71083641052246,614.1185760498047,left,820.1492087841034,None,pp_17,icub,clamp,2021_Dec_23_1616,exp,2021.2.3,59.85048451976821,
left,go,2,0,2,0,0,5,5,0,820.6665329933167,None,1,0.5905001163482666,820.6665329933167,None,821.389340877533,None,822.4020268917084,822.770929813385,822.4020268917084,822.770929813385,821.389340877533,None,821.389340877533,None,821.389340877533,None,-1,-1,1,True,412.5351905822754,849.459171295166,left,824.5624089241028,None,pp_17,icub,clamp,2021_Dec_23_1616,exp,2021.2.3,59.85048451976821,
left,stop,2,0,2,0,1,0,6,2,825.0873258113861,None,1,0.5619468688964844,825.0873258113861,None,825.7554388046265,None,826.7579917907715,827.0817668437958,826.7579917907715,827.0817668437958,825.7554388046265,None,825.7554388046265,None,825.7554388046265,None,350,350,1,True,379.5192241668701,-1.0,-1,831.0206828117371,None,pp_17,icub,clamp,2021_Dec_23_1616,exp,2021.2.3,59.85048451976821,
right,stop,2,0,2,0,1,1,7,5,831.5229368209839,None,1,0.448699951171875,831.5229368209839,None,832.0727219581604,None,833.047287940979,833.386058807373,833.047287940979,833.386058807373,832.0727219581604,None,832.0727219581604,None,832.0727219581604,None,400,350,0,True,288.5451316833496,545.2663898468018,right,834.7795369625092,None,pp_17,icub,clamp,2021_Dec_23_1616,exp,2021.2.3,59.85048451976821,
right,stop,2,0,2,0,1,2,8,5,835.2991878986359,None,1,1.0031189918518066,835.2991878986359,None,836.377858877182,None,837.4115397930145,837.7637739181519,837.4115397930145,837.7637739181519,836.377858877182,None,836.377858877182,None,836.377858877182,None,400,300,1,True,351.1354923248291,-1.0,-1,841.6119589805603,None,pp_17,icub,clamp,2021_Dec_23_1616,exp,2021.2.3,59.85048451976821,
right,go,2,0,2,0,1,3,9,4,842.1038868427277,None,1,0.29877686500549316,842.1038868427277,None,842.531023979187,None,843.5285999774933,843.8959360122681,843.5285999774933,843.8959360122681,842.531023979187,None,842.531023979187,None,842.531023979187,None,-1,-1,1,True,262.25852966308594,533.4012508392334,right,845.214262008667,None,pp_17,icub,clamp,2021_Dec_23_1616,exp,2021.2.3,59.85048451976821,
right,go,2,0,2,0,1,4,10,4,845.7128448486328,None,1,0.6372668743133545,845.7128448486328,None,846.4407107830048,None,847.472818851471,847.8359718322754,847.472818851471,847.8359718322754,846.4407107830048,None,846.4407107830048,None,846.4407107830048,None,-1,-1,1,True,319.8890686035156,593.9414501190186,right,849.2307159900665,None,pp_17,icub,clamp,2021_Dec_23_1616,exp,2021.2.3,59.85048451976821,
right,stop,2,0,2,0,1,5,11,5,849.7538027763367,None,1,0.5179519653320312,849.7538027763367,None,850.3571639060974,None,851.3705070018768,851.7251307964325,851.3705070018768,851.7251307964325,850.3571639060974,None,850.3571639060974,None,850.3571639060974,None,400,350,1,True,362.8847599029541,-1.0,-1,855.5922119617462,None,pp_17,icub,clamp,2021_Dec_23_1616,exp,2021.2.3,59.85048451976821,
left,go,2,0,2,0,2,0,12,0,856.1224949359894,None,1,0.3881371021270752,856.1224949359894,None,856.6106669902802,None,857.6080808639526,857.9548299312592,857.6080808639526,857.9548299312592,856.6106669902802,None,856.6106669902802,None,856.6106669902802,None,-1,-1,1,True,281.7816734313965,573.9932060241699,left,859.3266928195953,None,pp_17,icub,clamp,2021_Dec_23_1616,exp,2021.2.3,59.85048451976821,
right,go,2,0,2,0,2,1,13,4,859.8669579029083,None,1,0.460054874420166,859.8669579029083,None,860.4078679084778,None,861.4058809280396,861.7536528110504,861.4058809280396,861.7536528110504,860.4078679084778,None,860.4078679084778,None,860.4078679084778,None,-1,-1,1,True,430.3762912750244,573.9526748657227,right,863.2901258468628,None,pp_17,icub,clamp,2021_Dec_23_1616,exp,2021.2.3,59.85048451976821,
left,go,2,0,2,0,2,2,14,0,863.808308839798,None,1,0.5888051986694336,863.808308839798,None,864.4730298519135,None,865.4883778095245,865.8234729766846,865.4883778095245,865.8234729766846,864.4730298519135,None,864.4730298519135,None,864.4730298519135,None,-1,-1,1,True,480.7415008544922,544.7733402252197,left,867.4006989002228,None,pp_17,icub,clamp,2021_Dec_23_1616,exp,2021.2.3,59.85048451976821,
right,go,2,0,2,0,2,3,15,4,867.9205439090729,None,1,0.866157054901123,867.9205439090729,None,868.885214805603,None,869.8956577777863,870.2650218009949,869.8956577777863,870.2650218009949,868.885214805603,None,868.885214805603,None,868.885214805603,None,-1,-1,1,True,305.1438331604004,548.9389896392822,right,871.6489188671112,None,pp_17,icub,clamp,2021_Dec_23_1616,exp,2021.2.3,59.85048451976821,
right,stop,2,0,2,0,2,4,16,5,872.166093826294,None,1,0.6377248764038086,872.166093826294,None,872.8931620121002,None,873.8980779647827,874.241644859314,873.8980779647827,874.241644859314,872.8931620121002,None,872.8931620121002,None,872.8931620121002,None,400,400,0,True,501.4059543609619,506.5033435821533,right,875.7721989154816,None,pp_17,icub,clamp,2021_Dec_23_1616,exp,2021.2.3,59.85048451976821,
left,go,2,0,2,0,2,5,17,0,876.2838509082794,None,1,2.3731091022491455,876.2838509082794,None,878.7423758506775,None,879.7342948913574,880.0933837890625,879.7342948913574,880.0933837890625,878.7423758506775,None,878.7423758506775,None,878.7423758506775,None,-1,-1,1,True,347.75304794311523,560.349702835083,left,881.5357508659363,None,pp_17,icub,clamp,2021_Dec_23_1616,exp,2021.2.3,59.85048451976821,
right,go,2,0,2,0,3,0,18,3,882.059506893158,None,1,1.0622739791870117,882.059506893158,None,883.2070407867432,None,884.2247018814087,884.5671188831329,884.2247018814087,884.5671188831329,883.2070407867432,None,883.2070407867432,None,883.2070407867432,None,-1,-1,1,True,282.20200538635254,486.42611503601074,right,885.879478931427,None,pp_17,icub,clamp,2021_Dec_23_1616,exp,2021.2.3,59.85048451976821,
left,go,2,0,2,0,3,1,19,0,886.3988029956818,None,1,0.529026985168457,886.3988029956818,None,887.0031290054321,None,888.0094017982483,888.3697578907013,888.0094017982483,888.3697578907013,887.0031290054321,None,887.0031290054321,None,887.0031290054321,None,-1,-1,1,True,305.94611167907715,578.4342288970947,left,889.7844069004059,None,pp_17,icub,clamp,2021_Dec_23_1616,exp,2021.2.3,59.85048451976821,
left,stop,2,0,2,0,3,2,20,2,890.3207108974457,None,1,1.4389119148254395,890.3207108974457,None,891.8552498817444,None,892.885715007782,893.2446038722992,892.885715007782,893.2446038722992,891.8552498817444,None,891.8552498817444,None,891.8552498817444,None,400,350,1,True,458.04381370544434,-1.0,-1,897.1851019859314,None,pp_17,icub,clamp,2021_Dec_23_1616,exp,2021.2.3,59.85048451976821,
right,stop,2,0,2,0,3,3,21,5,897.7146518230438,None,1,0.6514360904693604,897.7146518230438,None,898.4994449615479,None,899.4814147949219,899.8149919509888,899.4814147949219,899.8149919509888,898.4994449615479,None,898.4994449615479,None,898.4994449615479,None,450,350,1,True,373.3220100402832,-1.0,-1,903.75341796875,None,pp_17,icub,clamp,2021_Dec_23_1616,exp,2021.2.3,59.85048451976821,
right,go,2,0,2,0,3,4,22,4,904.2825119495392,None,1,0.38894009590148926,904.2825119495392,None,904.7695119380951,None,905.7450609207153,906.0998628139496,905.7450609207153,906.0998628139496,904.7695119380951,None,904.7695119380951,None,904.7695119380951,None,-1,-1,1,True,313.05575370788574,497.29347229003906,right,907.4704329967499,None,pp_17,icub,clamp,2021_Dec_23_1616,exp,2021.2.3,59.85048451976821,
left,stop,2,0,2,0,3,5,23,2,907.9901978969574,None,1,0.8396577835083008,907.9901978969574,None,908.9355788230896,None,909.9514448642731,910.3000948429108,909.9514448642731,910.3000948429108,908.9355788230896,None,908.9355788230896,None,908.9355788230896,None,450,400,0,True,364.2745018005371,610.0506782531738,left,911.7906877994537,None,pp_17,icub,clamp,2021_Dec_23_1616,exp,2021.2.3,59.85048451976821,
right,stop,2,0,2,0,4,0,24,5,912.3223578929901,None,1,0.8864161968231201,912.3223578929901,None,913.2951250076294,None,914.2900438308716,914.6530318260193,914.2900438308716,914.6530318260193,913.2951250076294,None,913.2951250076294,None,913.2951250076294,None,400,400,1,True,262.7851963043213,-1.0,-1,918.474851846695,None,pp_17,icub,clamp,2021_Dec_23_1616,exp,2021.2.3,59.85048451976821,
left,go,2,0,2,0,4,1,25,0,918.9667329788208,None,1,0.47252392768859863,918.9667329788208,None,919.5770969390869,None,920.5574049949646,920.9185428619385,920.5574049949646,920.9185428619385,919.5770969390869,None,919.5770969390869,None,919.5770969390869,None,-1,-1,1,True,351.7038822174072,504.3337345123291,left,922.3012998104095,None,pp_17,icub,clamp,2021_Dec_23_1616,exp,2021.2.3,59.85048451976821,
right,go,2,0,2,0,4,2,26,3,922.8127288818359,None,1,0.718984842300415,922.8127288818359,None,923.6589748859406,None,924.6718118190765,925.0318949222565,924.6718118190765,925.0318949222565,923.6589748859406,None,923.6589748859406,None,923.6589748859406,None,-1,-1,1,True,406.9945812225342,609.9779605865479,right,926.5610690116882,None,pp_17,icub,clamp,2021_Dec_23_1616,exp,2021.2.3,59.85048451976821,
left,go,2,0,2,0,4,3,27,1,927.0912439823151,None,1,0.7262899875640869,927.0912439823151,None,927.9350860118866,None,928.9602248668671,929.2935400009155,928.9602248668671,929.2935400009155,927.9350860118866,None,927.9350860118866,None,927.9350860118866,None,-1,-1,1,True,555.4611682891846,529.4091701507568,left,930.9099228382111,None,pp_17,icub,clamp,2021_Dec_23_1616,exp,2021.2.3,59.85048451976821,
left,go,2,0,2,0,4,4,28,0,931.4271697998047,None,1,0.8975489139556885,931.4271697998047,None,932.4490678310394,None,933.4510278701782,933.7990589141846,933.4510278701782,933.7990589141846,932.4490678310394,None,932.4490678310394,None,932.4490678310394,None,-1,-1,1,True,529.973030090332,600.5988121032715,left,935.4559478759766,None,pp_17,icub,clamp,2021_Dec_23_1616,exp,2021.2.3,59.85048451976821,
right,go,2,0,2,0,4,5,29,4,935.971076965332,None,1,0.6976799964904785,935.971076965332,None,936.7561399936676,None,937.7634057998657,938.115348815918,937.7634057998657,938.115348815918,936.7561399936676,None,936.7561399936676,None,936.7561399936676,None,-1,-1,1,True,598.8118648529053,580.150842666626,right,939.817792892456,None,pp_17,icub,clamp,2021_Dec_23_1616,exp,2021.2.3,59.85048451976821,
right,go,2,0,2,0,5,0,30,4,940.326162815094,None,1,0.783531904220581,940.326162815094,None,941.2372009754181,None,942.2293930053711,942.5911870002747,942.2293930053711,942.5911870002747,941.2372009754181,None,941.2372009754181,None,941.2372009754181,None,-1,-1,1,True,569.5502758026123,651.3304710388184,right,944.3690178394318,None,pp_17,icub,clamp,2021_Dec_23_1616,exp,2021.2.3,59.85048451976821,
right,stop,2,0,2,0,5,1,31,5,944.8807148933411,None,1,0.5734190940856934,944.8807148933411,None,945.5444509983063,None,946.5733938217163,946.9288959503174,946.5733938217163,946.9288959503174,945.5444509983063,None,945.5444509983063,None,945.5444509983063,None,400,450,0,True,437.33716011047363,476.20677947998047,right,948.3384218215942,None,pp_17,icub,clamp,2021_Dec_23_1616,exp,2021.2.3,59.85048451976821,
left,go,2,0,2,0,5,2,32,1,948.8599648475647,None,1,0.8744900226593018,948.8599648475647,None,949.8352789878845,None,950.8357889652252,951.1834309101105,950.8357889652252,951.1834309101105,949.8352789878845,None,949.8352789878845,None,949.8352789878845,None,-1,-1,1,True,341.8543338775635,537.647008895874,left,952.5933768749237,None,pp_17,icub,clamp,2021_Dec_23_1616,exp,2021.2.3,59.85048451976821,
right,go,2,0,2,0,5,3,33,4,953.1134259700775,None,1,0.575922966003418,953.1134259700775,None,953.780250787735,None,954.7762458324432,955.1386017799377,954.7762458324432,955.1386017799377,953.780250787735,None,953.780250787735,None,953.780250787735,None,-1,-1,1,True,340.9547805786133,621.9437122344971,right,956.6283497810364,None,pp_17,icub,clamp,2021_Dec_23_1616,exp,2021.2.3,59.85048451976821,
right,go,2,0,2,0,5,4,34,3,957.1488099098206,None,1,0.52292799949646,957.1488099098206,None,957.7522528171539,None,958.7662990093231,959.1149377822876,958.7662990093231,959.1149377822876,957.7522528171539,None,957.7522528171539,None,957.7522528171539,None,-1,-1,1,True,593.2905673980713,506.5579414367676,right,960.7327377796173,None,pp_17,icub,clamp,2021_Dec_23_1616,exp,2021.2.3,59.85048451976821,
right,go,2,0,2,0,5,5,35,3,961.256425857544,None,1,0.5224440097808838,961.256425857544,None,961.8591837882996,None,962.8503890037537,963.2105259895325,962.8503890037537,963.2105259895325,961.8591837882996,None,961.8591837882996,None,961.8591837882996,None,-1,-1,1,True,501.7859935760498,629.3914318084717,right,964.8698818683624,None,pp_17,icub,clamp,2021_Dec_23_1616,exp,2021.2.3,59.85048451976821,
left,go,2,0,2,0,6,0,36,1,965.3785498142242,None,1,0.5309720039367676,965.3785498142242,None,965.9850389957428,None,967.0000097751617,967.3555188179016,967.0000097751617,967.3555188179016,965.9850389957428,None,965.9850389957428,None,965.9850389957428,None,-1,-1,1,True,472.7747440338135,553.9817810058594,left,968.8870749473572,None,pp_17,icub,clamp,2021_Dec_23_1616,exp,2021.2.3,59.85048451976821,
right,stop,2,0,2,0,6,1,37,5,969.3845908641815,None,1,0.7419731616973877,969.3845908641815,None,970.2272279262543,None,971.2401928901672,971.5854589939117,971.2401928901672,971.5854589939117,970.2272279262543,None,970.2272279262543,None,970.2272279262543,None,400,400,1,True,331.74729347229004,-1.0,-1,975.4633498191833,None,pp_17,icub,clamp,2021_Dec_23_1616,exp,2021.2.3,59.85048451976821,
left,go,2,0,2,0,6,2,38,1,975.994423866272,None,1,0.4756908416748047,975.994423866272,None,976.6056408882141,None,977.5861189365387,977.9371778964996,977.5861189365387,977.9371778964996,976.6056408882141,None,976.6056408882141,None,976.6056408882141,None,-1,-1,1,True,299.24631118774414,619.3709373474121,left,979.425922870636,None,pp_17,icub,clamp,2021_Dec_23_1616,exp,2021.2.3,59.85048451976821,
left,go,2,0,2,0,6,3,39,1,979.944454908371,None,1,0.48532891273498535,979.944454908371,None,980.5490198135376,None,981.5792307853699,981.9385778903961,981.5792307853699,981.9385778903961,980.5490198135376,None,980.5490198135376,None,980.5490198135376,None,-1,-1,1,True,415.50326347351074,579.0517330169678,left,983.4538459777832,None,pp_17,icub,clamp,2021_Dec_23_1616,exp,2021.2.3,59.85048451976821,
right,go,2,0,2,0,6,4,40,3,983.9589920043945,None,1,0.6465210914611816,983.9589920043945,None,984.6858208179474,None,985.6964638233185,986.0522148609161,985.6964638233185,986.0522148609161,984.6858208179474,None,984.6858208179474,None,984.6858208179474,None,-1,-1,1,True,364.85767364501953,602.5838851928711,right,987.5459098815918,None,pp_17,icub,clamp,2021_Dec_23_1616,exp,2021.2.3,59.85048451976821,
left,stop,2,0,2,0,6,5,41,2,988.0463478565216,None,1,0.6661820411682129,988.0463478565216,None,988.8364567756653,None,989.8328688144684,990.1819789409637,989.8328688144684,990.1819789409637,988.8364567756653,None,988.8364567756653,None,988.8364567756653,None,400,450,1,True,611.0284328460693,-1.0,-1,994.327066898346,None,pp_17,icub,clamp,2021_Dec_23_1616,exp,2021.2.3,59.85048451976821,
left,go,2,0,2,0,7,0,42,1,994.8580207824707,None,1,0.3911900520324707,994.8580207824707,None,995.346498966217,None,996.3304967880249,996.6805758476257,996.3304967880249,996.6805758476257,995.346498966217,None,995.346498966217,None,995.346498966217,None,-1,-1,1,True,352.9822826385498,612.4327182769775,left,998.1781558990479,None,pp_17,icub,clamp,2021_Dec_23_1616,exp,2021.2.3,59.85048451976821,
left,go,2,0,2,0,7,1,43,1,998.685861825943,None,1,0.751554012298584,998.685861825943,None,999.5386459827423,None,1000.5621039867401,1000.920578956604,1000.5621039867401,1000.920578956604,999.5386459827423,None,999.5386459827423,None,999.5386459827423,None,-1,-1,1,True,466.6748046875,622.0078468322754,left,1002.5211939811707,None,pp_17,icub,clamp,2021_Dec_23_1616,exp,2021.2.3,59.85048451976821,
left,go,2,0,2,0,7,2,44,0,1003.0593509674072,None,1,0.9480810165405273,1003.0593509674072,None,1004.0930409431458,None,1005.0914227962494,1005.4443919658661,1005.0914227962494,1005.4443919658661,1004.0930409431458,None,1004.0930409431458,None,1004.0930409431458,None,-1,-1,1,True,545.8657741546631,605.8478355407715,left,1007.1140828132629,None,pp_17,icub,clamp,2021_Dec_23_1616,exp,2021.2.3,59.85048451976821,
right,go,2,0,2,0,7,3,45,3,1007.6288928985596,None,1,0.910498857498169,1007.6288928985596,None,1008.6637768745422,None,1009.6779029369354,1010.0344388484955,1009.6779029369354,1010.0344388484955,1008.6637768745422,None,1008.6637768745422,None,1008.6637768745422,None,-1,-1,1,True,32.99379348754883,666.8424606323242,right,1011.2532699108124,None,pp_17,icub,clamp,2021_Dec_23_1616,exp,2021.2.3,59.85048451976821,
right,go,2,0,2,0,7,4,46,3,1011.7624139785767,None,1,0.763049840927124,1011.7624139785767,None,1012.6160349845886,None,1013.6162419319153,1013.9809498786926,1013.6162419319153,1013.9809498786926,1012.6160349845886,None,1012.6160349845886,None,1012.6160349845886,None,-1,-1,1,True,418.9000129699707,713.3746147155762,right,1015.6372168064117,None,pp_17,icub,clamp,2021_Dec_23_1616,exp,2021.2.3,59.85048451976821,
left,go,2,0,2,0,7,5,47,0,1016.1474199295044,None,1,0.7600300312042236,1016.1474199295044,None,1016.9977149963379,None,1018.0314238071442,1018.3877530097961,1018.0314238071442,1018.3877530097961,1016.9977149963379,None,1016.9977149963379,None,1016.9977149963379,None,-1,-1,1,True,647.4871635437012,610.7087135314941,left,1020.1538949012756,None,pp_17,icub,clamp,2021_Dec_23_1616,exp,2021.2.3,59.85048451976821,
right,go,2,0,2,0,8,0,48,4,1020.6706149578094,None,1,1.3417980670928955,1020.6706149578094,None,1022.136510848999,None,1023.1572649478912,1023.5117859840393,1023.1572649478912,1023.5117859840393,1022.136510848999,None,1022.136510848999,None,1022.136510848999,None,-1,-1,1,True,287.56189346313477,614.3763065338135,right,1024.9400589466095,None,pp_17,icub,clamp,2021_Dec_23_1616,exp,2021.2.3,59.85048451976821,
right,go,2,0,2,0,8,1,49,3,1025.4567937850952,None,1,1.032548189163208,1025.4567937850952,None,1026.598731994629,None,1027.5989480018616,1027.9561247825623,1027.5989480018616,1027.9561247825623,1026.598731994629,None,1026.598731994629,None,1026.598731994629,None,-1,-1,1,True,501.2397766113281,524.2905616760254,right,1029.4988749027252,None,pp_17,icub,clamp,2021_Dec_23_1616,exp,2021.2.3,59.85048451976821,
left,go,2,0,2,0,8,2,50,0,1030.0199239253998,None,1,0.589210033416748,1030.0199239253998,None,1030.6831698417664,None,1031.7048399448395,1032.0662188529968,1031.7048399448395,1032.0662188529968,1030.6831698417664,None,1030.6831698417664,None,1030.6831698417664,None,-1,-1,1,True,439.23234939575195,648.4882831573486,left,1033.6378920078278,None,pp_17,icub,clamp,2021_Dec_23_1616,exp,2021.2.3,59.85048451976821,
right,go,2,0,2,0,8,3,51,3,1034.1568439006805,None,1,0.956413984298706,1034.1568439006805,None,1035.1935420036316,None,1036.2088599205017,1036.5479698181152,1036.2088599205017,1036.5479698181152,1035.1935420036316,None,1035.1935420036316,None,1035.1935420036316,None,-1,-1,1,True,505.8126449584961,509.9959373474121,right,1038.0907969474792,None,pp_17,icub,clamp,2021_Dec_23_1616,exp,2021.2.3,59.85048451976821,
left,go,2,0,2,0,8,4,52,1,1038.5907127857208,None,1,0.6905789375305176,1038.5907127857208,None,1039.3790907859802,None,1040.3766977787018,1040.7353539466858,1040.3766977787018,1040.7353539466858,1039.3790907859802,None,1039.3790907859802,None,1039.3790907859802,None,-1,-1,1,True,338.0160331726074,733.9382171630859,left,1042.335284948349,None,pp_17,icub,clamp,2021_Dec_23_1616,exp,2021.2.3,59.85048451976821,
left,stop,2,0,2,0,8,5,53,2,1042.8535687923431,None,1,0.7066948413848877,1042.8535687923431,None,1043.6831548213959,None,1044.6918759346008,1045.0369119644165,1044.6918759346008,1045.0369119644165,1043.6831548213959,None,1043.6831548213959,None,1043.6831548213959,None,450,450,0,True,469.738245010376,612.4098300933838,left,1046.6464898586273,None,pp_17,icub,clamp,2021_Dec_23_1616,exp,2021.2.3,59.85048451976821,
right,go,2,0,2,0,9,0,54,3,1047.1555190086365,None,1,1.1025209426879883,1047.1555190086365,None,1048.377385854721,None,1049.3886849880219,1049.735153913498,1049.3886849880219,1049.735153913498,1048.377385854721,None,1048.377385854721,None,1048.377385854721,None,-1,-1,1,True,399.49798583984375,575.6583213806152,right,1051.2455430030823,None,pp_17,icub,clamp,2021_Dec_23_1616,exp,2021.2.3,59.85048451976821,
left,stop,2,0,2,0,9,1,55,2,1051.7425029277802,None,1,0.5908520221710205,1051.7425029277802,None,1052.409276008606,None,1053.43976187706,1053.796446800232,1053.43976187706,1053.796446800232,1052.409276008606,None,1052.409276008606,None,1052.409276008606,None,400,450,0,True,413.39921951293945,657.8230857849121,left,1055.3616139888763,None,pp_17,icub,clamp,2021_Dec_23_1616,exp,2021.2.3,59.85048451976821,
right,stop,2,0,2,0,9,2,56,5,1055.8810029029846,None,1,2.294034957885742,1055.8810029029846,None,1058.3080518245697,None,1059.3171379566193,1059.6760737895966,1059.3171379566193,1059.6760737895966,1058.3080518245697,None,1058.3080518245697,None,1058.3080518245697,None,350,450,1,True,129.3795108795166,-1.0,-1,1063.3400008678436,None,pp_17,icub,clamp,2021_Dec_23_1616,exp,2021.2.3,59.85048451976821,
left,go,2,0,2,0,9,3,57,1,1063.8325638771057,None,1,0.27800822257995605,1063.8325638771057,None,1064.1972579956055,None,1065.1785669326782,1065.5488228797913,1065.1785669326782,1065.5488228797913,1064.1972579956055,None,1064.1972579956055,None,1064.1972579956055,None,-1,-1,1,True,343.8103199005127,608.208417892456,left,1067.0208888053894,None,pp_17,icub,clamp,2021_Dec_23_1616,exp,2021.2.3,59.85048451976821,
left,go,2,0,2,0,9,4,58,1,1067.5258808135986,None,1,1.1203949451446533,1067.5258808135986,None,1068.7461349964142,None,1069.7478499412537,1070.10790681839,1069.7478499412537,1070.10790681839,1068.7461349964142,None,1068.7461349964142,None,1068.7461349964142,None,-1,-1,1,True,271.7244625091553,596.1616039276123,left,1071.491453886032,None,pp_17,icub,clamp,2021_Dec_23_1616,exp,2021.2.3,59.85048451976821,
left,go,2,0,2,0,9,5,59,1,1072.0119187831879,None,1,0.6514050960540771,1072.0119187831879,None,1072.7436468601227,None,1073.77295088768,1074.12060880661,1073.77295088768,1074.12060880661,1072.7436468601227,None,1072.7436468601227,None,1072.7436468601227,None,-1,-1,1,True,556.9837093353271,685.4231357574463,left,1075.875139951706,None,pp_17,icub,clamp,2021_Dec_23_1616,exp,2021.2.3,59.85048451976821,
left,go,2,0,2,0,10,0,60,0,1076.409812927246,None,1,0.4892880916595459,1076.409812927246,None,1077.0154237747192,None,1078.0167849063873,1078.3701968193054,1078.0167849063873,1078.3701968193054,1077.0154237747192,None,1077.0154237747192,None,1077.0154237747192,None,-1,-1,1,True,424.069881439209,601.9227504730225,left,1079.92080783844,None,pp_17,icub,clamp,2021_Dec_23_1616,exp,2021.2.3,59.85048451976821,
right,go,2,0,2,0,10,1,61,3,1080.4342079162598,None,1,0.5208511352539062,1080.4342079162598,None,1081.0339539051056,None,1082.0584568977356,1082.4044618606567,1082.0584568977356,1082.4044618606567,1081.0339539051056,None,1081.0339539051056,None,1081.0339539051056,None,-1,-1,1,True,363.80910873413086,516.5688991546631,right,1083.7911729812622,None,pp_17,icub,clamp,2021_Dec_23_1616,exp,2021.2.3,59.85048451976821,
right,go,2,0,2,0,10,2,62,3,1084.2942399978638,None,1,0.6188409328460693,1084.2942399978638,None,1085.0186858177185,None,1086.0142979621887,1086.3730549812317,1086.0142979621887,1086.3730549812317,1085.0186858177185,None,1085.0186858177185,None,1085.0186858177185,None,-1,-1,1,True,395.37501335144043,553.8241863250732,right,1087.8548579216003,None,pp_17,icub,clamp,2021_Dec_23_1616,exp,2021.2.3,59.85048451976821,
right,stop,2,0,2,0,10,3,63,5,1088.366791009903,None,1,0.5194969177246094,1088.366791009903,None,1088.970850944519,None,1089.9790349006653,1090.338203907013,1089.9790349006653,1090.338203907013,1088.970850944519,None,1088.970850944519,None,1088.970850944519,None,350,500,0,True,539.5362377166748,595.1039791107178,right,1092.00044298172,None,pp_17,icub,clamp,2021_Dec_23_1616,exp,2021.2.3,59.85048451976821,
left,stop,2,0,2,0,10,4,64,2,1092.5089228153229,None,1,1.0118868350982666,1092.5089228153229,None,1093.6035149097443,None,1094.6334218978882,1094.9767649173737,1094.6334218978882,1094.9767649173737,1093.6035149097443,None,1093.6035149097443,None,1093.6035149097443,None,350,450,1,True,381.4058303833008,-1.0,-1,1098.8940658569336,None,pp_17,icub,clamp,2021_Dec_23_1616,exp,2021.2.3,59.85048451976821,
left,go,2,0,2,0,10,5,65,0,1099.38529586792,None,1,0.45036888122558594,1099.38529586792,None,1099.9343538284302,None,1100.9169239997864,1101.2735087871552,1100.9169239997864,1101.2735087871552,1099.9343538284302,None,1099.9343538284302,None,1099.9343538284302,None,-1,-1,1,True,386.20543479919434,551.5429973602295,left,1102.7417178153992,None,pp_17,icub,clamp,2021_Dec_23_1616,exp,2021.2.3,59.85048451976821,
left,stop,2,0,2,0,11,0,66,2,1103.2608428001404,None,1,1.2402288913726807,1103.2608428001404,None,1104.603441953659,None,1105.6152968406677,1105.9723718166351,1105.6152968406677,1105.9723718166351,1104.603441953659,None,1104.603441953659,None,1104.603441953659,None,400,450,1,True,332.63683319091797,-1.0,-1,1109.8335299491882,None,pp_17,icub,clamp,2021_Dec_23_1616,exp,2021.2.3,59.85048451976821,
right,go,2,0,2,0,11,1,67,4,1110.3664469718933,None,1,0.3352060317993164,1110.3664469718933,None,1110.7927858829498,None,1111.7710659503937,1112.1213908195496,1111.7710659503937,1112.1213908195496,1110.7927858829498,None,1110.7927858829498,None,1110.7927858829498,None,-1,-1,1,True,338.20199966430664,527.1377563476562,right,1113.555624961853,None,pp_17,icub,clamp,2021_Dec_23_1616,exp,2021.2.3,59.85048451976821,
left,stop,2,0,2,0,11,2,68,2,1114.0940339565277,None,1,0.48389291763305664,1114.0940339565277,None,1114.697762966156,None,1115.7099030017853,1116.0518000125885,1115.7099030017853,1116.0518000125885,1114.697762966156,None,1114.697762966156,None,1114.697762966156,None,450,450,0,True,386.8415355682373,556.563138961792,left,1117.5306899547577,None,pp_17,icub,clamp,2021_Dec_23_1616,exp,2021.2.3,59.85048451976821,
right,stop,2,0,2,0,11,3,69,5,1118.04794383049,None,1,1.536073923110962,1118.04794383049,None,1119.69944190979,None,1120.719002008438,1121.0714077949524,1120.719002008438,1121.0714077949524,1119.69944190979,None,1119.69944190979,None,1119.69944190979,None,400,450,0,True,415.36712646484375,586.2596035003662,right,1122.596531867981,None,pp_17,icub,clamp,2021_Dec_23_1616,exp,2021.2.3,59.85048451976821,
right,go,2,0,2,0,11,4,70,4,1123.1095459461212,None,1,0.9325211048126221,1123.1095459461212,None,1124.1488239765167,None,1125.1633818149567,1125.510293006897,1125.1633818149567,1125.510293006897,1124.1488239765167,None,1124.1488239765167,None,1124.1488239765167,None,-1,-1,1,True,337.01109886169434,646.5113162994385,right,1127.0382628440857,None,pp_17,icub,clamp,2021_Dec_23_1616,exp,2021.2.3,59.85048451976821,
right,stop,2,0,2,0,11,5,71,5,1127.5493578910828,None,1,0.6625289916992188,1127.5493578910828,None,1128.3400650024414,None,1129.3551819324493,1129.7040147781372,1129.3551819324493,1129.7040147781372,1128.3400650024414,None,1128.3400650024414,None,1128.3400650024414,None,400,400,0,True,341.8107032775879,626.4195442199707,right,1131.1960108280182,None,pp_17,icub,clamp,2021_Dec_23_1616,exp,2021.2.3,59.85048451976821,
right,go,2,0,2,0,12,0,72,3,1131.7135968208313,None,1,1.576456069946289,1131.7135968208313,None,1133.4185979366302,None,1134.4269449710846,1134.7850279808044,1134.4269449710846,1134.7850279808044,1133.4185979366302,None,1133.4185979366302,None,1133.4185979366302,None,-1,-1,1,True,444.5154666900635,612.8878593444824,right,1136.3664228916168,None,pp_17,icub,clamp,2021_Dec_23_1616,exp,2021.2.3,59.85048451976821,
right,go,2,0,2,0,12,1,73,4,1136.906163930893,None,1,0.5911030769348145,1136.906163930893,None,1137.6209399700165,None,1138.620531797409,1138.9662539958954,1138.620531797409,1138.9662539958954,1137.6209399700165,None,1137.6209399700165,None,1137.6209399700165,None,-1,-1,1,True,438.1871223449707,538.780689239502,right,1140.4745619297028,None,pp_17,icub,clamp,2021_Dec_23_1616,exp,2021.2.3,59.85048451976821,
right,go,2,0,2,0,12,2,74,4,1140.9711418151855,None,1,0.6928508281707764,1140.9711418151855,None,1141.7865397930145,None,1142.8107659816742,1143.162279844284,1142.8107659816742,1143.162279844284,1141.7865397930145,None,1141.7865397930145,None,1141.7865397930145,None,-1,-1,1,True,548.377513885498,541.8961048126221,right,1144.7590038776398,None,pp_17,icub,clamp,2021_Dec_23_1616,exp,2021.2.3,59.85048451976821,
left,stop,2,0,2,0,12,3,75,2,1145.2781357765198,None,1,0.6350469589233398,1145.2781357765198,None,1146.0021657943726,None,1147.0141518115997,1147.3754069805145,1147.0141518115997,1147.3754069805145,1146.0021657943726,None,1146.0021657943726,None,1146.0021657943726,None,400,350,0,True,507.2455406188965,559.3044757843018,left,1148.9583458900452,None,pp_17,icub,clamp,2021_Dec_23_1616,exp,2021.2.3,59.85048451976821,
right,stop,2,0,2,0,12,4,76,5,1149.4792079925537,None,1,1.5327680110931396,1149.4792079925537,None,1151.1179029941559,None,1152.1110718250275,1152.4561808109283,1152.1110718250275,1152.4561808109283,1151.1179029941559,None,1151.1179029941559,None,1151.1179029941559,None,350,350,1,True,659.3489646911621,-1.0,-1,1156.6849229335785,None,pp_17,icub,clamp,2021_Dec_23_1616,exp,2021.2.3,59.85048451976821,
left,go,2,0,2,0,12,5,77,1,1157.178782939911,None,1,0.3016622066497803,1157.178782939911,None,1157.6050808429718,None,1158.6148219108582,1158.965451002121,1158.6148219108582,1158.965451002121,1157.6050808429718,None,1157.6050808429718,None,1157.6050808429718,None,-1,-1,1,True,430.5765628814697,596.4372158050537,left,1160.5211009979248,None,pp_17,icub,clamp,2021_Dec_23_1616,exp,2021.2.3,59.85048451976821,
left,go,3,0,3,0,0,0,0,0,1172.0343098640442,None,1,9.227398157119751,1172.0343098640442,None,1181.384891986847,None,1182.3947989940643,1182.7505259513855,1182.3947989940643,1182.7505259513855,1181.384891986847,None,1181.384891986847,None,1181.384891986847,None,-1,-1,1,True,568.0689811706543,544.745922088623,left,1184.3972718715668,None,pp_17,icub,clamp,2021_Dec_23_1616,exp,2021.2.3,59.85048451976821,
left,go,3,0,3,0,0,1,1,1,1184.919282913208,None,1,0.6816549301147461,1184.919282913208,None,1185.6915299892426,None,1186.7233560085297,1187.0874419212341,1186.7233560085297,1187.0874419212341,1185.6915299892426,None,1185.6915299892426,None,1185.6915299892426,None,-1,-1,1,True,500.9768009185791,582.5550556182861,left,1188.6474549770355,None,pp_17,icub,clamp,2021_Dec_23_1616,exp,2021.2.3,59.85048451976821,
left,go,3,0,3,0,0,2,2,1,1189.1762487888336,None,1,0.7456068992614746,1189.1762487888336,None,1190.0219898223877,None,1191.0479278564453,1191.396003961563,1191.0479278564453,1191.396003961563,1190.0219898223877,None,1190.0219898223877,None,1190.0219898223877,None,-1,-1,1,True,217.2858715057373,490.2632236480713,left,1192.6224949359894,None,pp_17,icub,clamp,2021_Dec_23_1616,exp,2021.2.3,59.85048451976821,
left,stop,3,0,3,0,0,3,3,2,1193.1538059711456,None,1,0.3953869342803955,1193.1538059711456,None,1193.6344149112701,None,1194.6609389781952,1195.0202639102936,1194.6609389781952,1195.0202639102936,1193.6344149112701,None,1193.6344149112701,None,1193.6344149112701,None,350,400,0,True,430.83715438842773,507.7683925628662,left,1196.4711258411407,None,pp_17,icub,clamp,2021_Dec_23_1616,exp,2021.2.3,59.85048451976821,
left,go,3,0,3,0,0,4,4,0,1196.9824919700623,None,1,1.6482810974121094,1196.9824919700623,None,1198.754410982132,None,1199.7673540115356,1200.1105008125305,1199.7673540115356,1200.1105008125305,1198.754410982132,None,1198.754410982132,None,1198.754410982132,None,-1,-1,1,True,436.42520904541016,570.5935955047607,left,1201.6512458324432,None,pp_17,icub,clamp,2021_Dec_23_1616,exp,2021.2.3,59.85048451976821,
left,go,3,0,3,0,0,5,5,1,1202.160677909851,None,1,0.963266134262085,1202.160677909851,None,1203.1991848945618,None,1204.1935679912567,1204.5639328956604,1204.1935679912567,1204.5639328956604,1203.1991848945618,None,1203.1991848945618,None,1203.1991848945618,None,-1,-1,1,True,320.7697868347168,562.0293617248535,left,1205.9774148464203,None,pp_17,icub,clamp,2021_Dec_23_1616,exp,2021.2.3,59.85048451976821,
left,go,3,0,3,0,1,0,6,0,1206.4929130077362,None,1,0.5782830715179443,1206.4929130077362,None,1207.1552648544312,None,1208.1627237796783,1208.51971077919,1208.1627237796783,1208.51971077919,1207.1552648544312,None,1207.1552648544312,None,1207.1552648544312,None,-1,-1,1,True,441.03312492370605,575.498104095459,left,1210.0632228851318,None,pp_17,icub,clamp,2021_Dec_23_1616,exp,2021.2.3,59.85048451976821,
right,stop,3,0,3,0,1,1,7,5,1210.5825428962708,None,1,0.7720229625701904,1210.5825428962708,None,1211.4298288822174,None,1212.4384729862213,1212.7940700054169,1212.4384729862213,1212.7940700054169,1211.4298288822174,None,1211.4298288822174,None,1211.4298288822174,None,300,400,0,True,383.06164741516113,553.8930892944336,right,1214.2542178630829,None,pp_17,icub,clamp,2021_Dec_23_1616,exp,2021.2.3,59.85048451976821,
left,stop,3,0,3,0,1,2,8,2,1214.7720158100128,None,1,0.6007840633392334,1214.7720158100128,None,1215.4711029529572,None,1216.4655468463898,1216.8254399299622,1216.4655468463898,1216.8254399299622,1215.4711029529572,None,1215.4711029529572,None,1215.4711029529572,None,300,350,1,True,370.85819244384766,-1.0,-1,1220.7291269302368,None,pp_17,icub,clamp,2021_Dec_23_1616,exp,2021.2.3,59.85048451976821,
right,go,3,0,3,0,1,3,9,4,1221.2206678390503,None,1,0.3784778118133545,1221.2206678390503,None,1221.7102439403534,None,1222.688735961914,1223.045292854309,1222.688735961914,1223.045292854309,1221.7102439403534,None,1221.7102439403534,None,1221.7102439403534,None,-1,-1,1,True,354.4964790344238,605.435848236084,right,1224.5722298622131,None,pp_17,icub,clamp,2021_Dec_23_1616,exp,2021.2.3,59.85048451976821,
left,go,3,0,3,0,1,4,10,0,1225.0797979831696,None,1,0.49163389205932617,1225.0797979831696,None,1225.681399822235,None,1226.6830089092255,1227.0284759998322,1226.6830089092255,1227.0284759998322,1225.681399822235,None,1225.681399822235,None,1225.681399822235,None,-1,-1,1,True,545.5007553100586,613.6384010314941,left,1228.7463819980621,None,pp_17,icub,clamp,2021_Dec_23_1616,exp,2021.2.3,59.85048451976821,
left,stop,3,0,3,0,1,5,11,2,1229.2493889331818,None,1,0.7309191226959229,1229.2493889331818,None,1230.0997688770294,None,1231.1286659240723,1231.4846649169922,1231.1286659240723,1231.4846649169922,1230.0997688770294,None,1230.0997688770294,None,1230.0997688770294,None,350,350,1,True,389.70065116882324,-1.0,-1,1235.366546869278,None,pp_17,icub,clamp,2021_Dec_23_1616,exp,2021.2.3,59.85048451976821,
right,stop,3,0,3,0,2,0,12,5,1235.8964939117432,None,1,0.31654977798461914,1235.8964939117432,None,1236.3224728107452,None,1237.3048648834229,1237.6572029590607,1237.3048648834229,1237.6572029590607,1236.3224728107452,None,1236.3224728107452,None,1236.3224728107452,None,400,350,1,True,308.57038497924805,-1.0,-1,1241.5293369293213,None,pp_17,icub,clamp,2021_Dec_23_1616,exp,2021.2.3,59.85048451976821,
