Holder,Action,blocks.thisRepN,blocks.thisTrialN,blocks.thisN,blocks.thisIndex,trials.thisRepN,trials.thisTrialN,trials.thisN,trials.thisIndex,start_msg.started,start_msg.stopped,RespButton_start_trial.keys,RespButton_start_trial.rt,RespButton_start_trial.started,RespButton_start_trial.stopped,GREEN.started,GREEN.stopped,LEFT_RED.started,LEFT_RED.stopped,RIGHT_RED.started,RIGHT_RED.stopped,LEFT_CIRCLE.started,LEFT_CIRCLE.stopped,CENTER_CIRCLE.started,CENTER_CIRCLE.stopped,RIGHT_CIRCLE.started,RIGHT_CIRCLE.stopped,SOUND_DELAY_MS_LEFT,SOUND_DELAY_MS_RIGHT,CORRECT,VALIDITY,RELEASE_TIME,TOUCH_TIME,BOTTLE_RESPONSE_POSITION,text.started,text.stopped,pid,left_position,right_position,date,expName,psychopyVersion,frameRate,
right,go,0,0,0,0,0,0,0,4,52.09114909172058,None,1,1.3020970821380615,52.09114909172058,None,53.4946129322052,None,54.52145504951477,54.87048387527466,54.52145504951477,54.87048387527466,53.4946129322052,None,53.4946129322052,None,53.4946129322052,None,-1,-1,1,True,1103.9774417877197,700.474739074707,right,57.18841195106506,None,pp_16,icub,clamp,2021_Dec_23_1523,exp,2021.2.3,59.876287482423145,
left,stop,0,0,0,0,0,1,1,2,57.702889919281006,None,1,1.176738977432251,57.702889919281006,None,58.98575687408447,None,59.991801023483276,60.3490948677063,59.991801023483276,60.3490948677063,58.98575687408447,None,58.98575687408447,None,58.98575687408447,None,500,500,0,True,489.25137519836426,652.3332595825195,left,62.02723789215088,None,pp_16,icub,clamp,2021_Dec_23_1523,exp,2021.2.3,59.876287482423145,
right,go,0,0,0,0,0,2,2,4,62.52646493911743,None,1,1.8261761665344238,62.52646493911743,None,64.42829895019531,None,65.44783687591553,65.80845594406128,65.44783687591553,65.80845594406128,64.42829895019531,None,64.42829895019531,None,64.42829895019531,None,-1,-1,1,True,287.75763511657715,1615.2315139770508,right,68.24598598480225,None,pp_16,icub,clamp,2021_Dec_23_1523,exp,2021.2.3,59.876287482423145,
left,stop,0,0,0,0,0,3,3,2,68.74642586708069,None,1,0.5895168781280518,68.74642586708069,None,69.41133189201355,None,70.43970108032227,70.7942910194397,70.43970108032227,70.7942910194397,69.41133189201355,None,69.41133189201355,None,69.41133189201355,None,450,500,1,True,770.8382606506348,-1.0,-1,75.08634400367737,None,pp_16,icub,clamp,2021_Dec_23_1523,exp,2021.2.3,59.876287482423145,
left,go,0,0,0,0,0,4,4,1,75.61586689949036,None,1,1.977423906326294,75.61586689949036,None,77.70931601524353,None,78.69162797927856,79.04806399345398,78.69162797927856,79.04806399345398,77.70931601524353,None,77.70931601524353,None,77.70931601524353,None,-1,-1,1,True,783.2369804382324,1039.379358291626,left,81.40317296981812,None,pp_16,icub,clamp,2021_Dec_23_1523,exp,2021.2.3,59.876287482423145,
right,stop,0,0,0,0,0,5,5,5,81.92673087120056,None,1,0.565748929977417,81.92673087120056,None,82.59327387809753,None,83.6248528957367,83.97985887527466,83.6248528957367,83.97985887527466,82.59327387809753,None,82.59327387809753,None,82.59327387809753,None,500,500,1,True,555.7613372802734,-1.0,-1,88.02481508255005,None,pp_16,icub,clamp,2021_Dec_23_1523,exp,2021.2.3,59.876287482423145,
left,go,0,0,0,0,1,0,6,0,88.55430293083191,None,1,0.6528069972991943,88.55430293083191,None,89.29018497467041,None,90.25925302505493,90.6142909526825,90.25925302505493,90.6142909526825,89.29018497467041,None,89.29018497467041,None,89.29018497467041,None,-1,-1,1,True,754.00710105896,1448.7419128417969,left,93.38785004615784,None,pp_16,icub,clamp,2021_Dec_23_1523,exp,2021.2.3,59.876287482423145,
right,go,0,0,0,0,1,1,7,4,93.90639996528625,None,1,0.992974042892456,93.90639996528625,None,95.00247597694397,None,96.00967907905579,96.33751606941223,96.00967907905579,96.33751606941223,95.00247597694397,None,95.00247597694397,None,95.00247597694397,None,-1,-1,1,True,1004.4345855712891,1280.350923538208,right,99.19446301460266,None,pp_16,icub,clamp,2021_Dec_23_1523,exp,2021.2.3,59.876287482423145,
right,stop,0,0,0,0,1,2,8,5,99.7148048877716,None,1,0.46579885482788086,99.7148048877716,None,100.25576591491699,None,101.24896597862244,101.5733630657196,101.24896597862244,101.5733630657196,100.25576591491699,None,100.25576591491699,None,100.25576591491699,None,500,550,1,True,614.3448352813721,-1.0,-1,105.76161599159241,None,pp_16,icub,clamp,2021_Dec_23_1523,exp,2021.2.3,59.876287482423145,
left,go,0,0,0,0,1,3,9,1,106.29155993461609,None,1,0.8124628067016602,106.29155993461609,None,107.21181106567383,None,108.21822905540466,108.56367897987366,108.21822905540466,108.56367897987366,107.21181106567383,None,107.21181106567383,None,107.21181106567383,None,-1,-1,1,True,453.6621570587158,808.4161281585693,left,110.35716390609741,None,pp_16,icub,clamp,2021_Dec_23_1523,exp,2021.2.3,59.876287482423145,
left,go,0,0,0,0,1,4,10,0,110.87423896789551,None,1,0.8903889656066895,110.87423896789551,None,111.84504008293152,None,112.86996102333069,113.22331309318542,112.86996102333069,113.22331309318542,111.84504008293152,None,111.84504008293152,None,111.84504008293152,None,-1,-1,1,True,1132.0555210113525,823.4395980834961,left,115.69744801521301,None,pp_16,icub,clamp,2021_Dec_23_1523,exp,2021.2.3,59.876287482423145,
left,go,0,0,0,0,1,5,11,1,116.23177194595337,None,1,0.5435910224914551,116.23177194595337,None,116.89911389350891,None,117.89687609672546,118.26372003555298,117.89687609672546,118.26372003555298,116.89911389350891,None,116.89911389350891,None,116.89911389350891,None,-1,-1,1,True,712.472677230835,1025.7847309112549,left,120.52332592010498,None,pp_16,icub,clamp,2021_Dec_23_1523,exp,2021.2.3,59.876287482423145,
right,go,0,0,0,0,2,0,12,3,121.04244089126587,None,1,0.6992199420928955,121.04244089126587,None,121.83249402046204,None,122.82957696914673,123.1789870262146,122.82957696914673,123.1789870262146,121.83249402046204,None,121.83249402046204,None,121.83249402046204,None,-1,-1,1,True,683.819055557251,1235.4762554168701,right,125.64713597297668,None,pp_16,icub,clamp,2021_Dec_23_1523,exp,2021.2.3,59.876287482423145,
right,go,0,0,0,0,2,1,13,3,126.16245698928833,None,1,0.3949739933013916,126.16245698928833,None,126.69018197059631,None,127.70625305175781,128.06589794158936,127.70625305175781,128.06589794158936,126.69018197059631,None,126.69018197059631,None,126.69018197059631,None,-1,-1,1,True,324.36180114746094,1107.5687408447266,right,130.02494287490845,None,pp_16,icub,clamp,2021_Dec_23_1523,exp,2021.2.3,59.876287482423145,
left,go,0,0,0,0,2,2,14,1,130.55106592178345,None,1,0.4090580940246582,130.55106592178345,None,131.08810997009277,None,132.10065603256226,132.45982599258423,132.10065603256226,132.45982599258423,131.08810997009277,None,131.08810997009277,None,131.08810997009277,None,-1,-1,1,True,461.46655082702637,792.9036617279053,left,134.23244309425354,None,pp_16,icub,clamp,2021_Dec_23_1523,exp,2021.2.3,59.876287482423145,
left,go,0,0,0,0,2,3,15,0,134.74919390678406,None,1,0.38996100425720215,134.74919390678406,None,135.22981595993042,None,136.2362380027771,136.58030009269714,136.2362380027771,136.58030009269714,135.22981595993042,None,135.22981595993042,None,135.22981595993042,None,-1,-1,1,True,383.93568992614746,744.3056106567383,left,138.23761987686157,None,pp_16,icub,clamp,2021_Dec_23_1523,exp,2021.2.3,59.876287482423145,
left,stop,0,0,0,0,2,4,16,2,138.76533102989197,None,1,0.6009159088134766,138.76533102989197,None,139.49372506141663,None,140.51836109161377,140.85296607017517,140.51836109161377,140.85296607017517,139.49372506141663,None,139.49372506141663,None,139.49372506141663,None,500,600,1,True,925.5471229553223,-1.0,-1,145.3095190525055,None,pp_16,icub,clamp,2021_Dec_23_1523,exp,2021.2.3,59.876287482423145,
right,go,0,0,0,0,2,5,17,4,145.84007501602173,None,1,0.7757492065429688,145.84007501602173,None,146.69907188415527,None,None,None,None,None,146.69907188415527,None,146.69907188415527,None,146.69907188415527,None,,,0,False,-1.0,-1.0,-1,146.9790449142456,None,pp_16,icub,clamp,2021_Dec_23_1523,exp,2021.2.3,59.876287482423145,
left,go,0,0,0,0,3,0,18,1,147.51023888587952,None,1,0.4865279197692871,147.51023888587952,None,148.12227201461792,None,149.10176992416382,149.45741987228394,149.10176992416382,149.45741987228394,148.12227201461792,None,148.12227201461792,None,148.12227201461792,None,-1,-1,1,True,874.9029636383057,1229.020118713379,left,152.09879398345947,None,pp_16,icub,clamp,2021_Dec_23_1523,exp,2021.2.3,59.876287482423145,
left,go,0,0,0,0,3,1,19,1,152.621680021286,None,1,0.7494750022888184,152.621680021286,None,153.4662048816681,None,154.49503993988037,154.8484170436859,154.49503993988037,154.8484170436859,153.4662048816681,None,153.4662048816681,None,153.4662048816681,None,-1,-1,1,True,862.1511459350586,1366.1046028137207,left,157.5853259563446,None,pp_16,icub,clamp,2021_Dec_23_1523,exp,2021.2.3,59.876287482423145,
right,go,0,0,0,0,3,2,20,4,158.0982849597931,None,1,0.642808198928833,158.0982849597931,None,158.82411098480225,None,159.842542886734,160.20696902275085,159.842542886734,160.20696902275085,158.82411098480225,None,158.82411098480225,None,158.82411098480225,None,-1,-1,1,True,1033.5485935211182,1054.9874305725098,right,162.8201038837433,None,pp_16,icub,clamp,2021_Dec_23_1523,exp,2021.2.3,59.876287482423145,
left,go,0,0,0,0,3,3,21,1,163.32612109184265,None,1,0.41295909881591797,163.32612109184265,None,163.86739206314087,None,164.88211488723755,165.23890209197998,164.88211488723755,165.23890209197998,163.86739206314087,None,163.86739206314087,None,163.86739206314087,None,-1,-1,1,True,869.5693016052246,907.7014923095703,left,167.54169297218323,None,pp_16,icub,clamp,2021_Dec_23_1523,exp,2021.2.3,59.876287482423145,
right,stop,0,0,0,0,3,4,22,5,168.05717706680298,None,1,0.728795051574707,168.05717706680298,None,168.90116596221924,None,169.90409398078918,170.2569658756256,169.90409398078918,170.2569658756256,168.90116596221924,None,168.90116596221924,None,168.90116596221924,None,550,600,1,True,1094.1448211669922,-1.0,-1,174.88253498077393,None,pp_16,icub,clamp,2021_Dec_23_1523,exp,2021.2.3,59.876287482423145,
right,go,0,0,0,0,3,5,23,4,175.412672996521,None,1,0.9690899848937988,175.412672996521,None,176.5166618824005,None,177.49357104301453,177.86238193511963,177.49357104301453,177.86238193511963,176.5166618824005,None,176.5166618824005,None,176.5166618824005,None,-1,-1,1,True,1054.297924041748,970.1099395751953,right,180.41737699508667,None,pp_16,icub,clamp,2021_Dec_23_1523,exp,2021.2.3,59.876287482423145,
right,go,0,0,0,0,4,0,24,3,180.92318487167358,None,1,0.49918103218078613,180.92318487167358,None,181.5281069278717,None,182.51883006095886,182.87223100662231,182.51883006095886,182.87223100662231,181.5281069278717,None,181.5281069278717,None,181.5281069278717,None,-1,-1,1,True,782.0751667022705,1130.1085948944092,right,185.31486201286316,None,pp_16,icub,clamp,2021_Dec_23_1523,exp,2021.2.3,59.876287482423145,
right,go,0,0,0,0,4,1,25,3,185.84334802627563,None,1,0.3774898052215576,185.84334802627563,None,186.32661604881287,None,187.32138299942017,187.6760768890381,187.32138299942017,187.6760768890381,186.32661604881287,None,186.32661604881287,None,186.32661604881287,None,-1,-1,1,True,408.9655876159668,746.5384006500244,right,189.3608319759369,None,pp_16,icub,clamp,2021_Dec_23_1523,exp,2021.2.3,59.876287482423145,
left,go,0,0,0,0,4,2,26,0,189.879487991333,None,1,0.4116511344909668,189.879487991333,None,190.41891503334045,None,191.41482400894165,191.77418303489685,191.41482400894165,191.77418303489685,190.41891503334045,None,190.41891503334045,None,190.41891503334045,None,-1,-1,1,True,37.35065460205078,2483.4532737731934,left,194.82753491401672,None,pp_16,icub,clamp,2021_Dec_23_1523,exp,2021.2.3,59.876287482423145,
left,go,0,0,0,0,4,3,27,0,195.33397006988525,None,1,0.4444849491119385,195.33397006988525,None,195.88040900230408,None,196.88571095466614,197.23304200172424,196.88571095466614,197.23304200172424,195.88040900230408,None,195.88040900230408,None,195.88040900230408,None,-1,-1,1,True,381.6108703613281,1259.6385478973389,left,199.3976640701294,None,pp_16,icub,clamp,2021_Dec_23_1523,exp,2021.2.3,59.876287482423145,
right,go,0,0,0,0,4,4,28,3,199.90958786010742,None,1,0.4703669548034668,199.90958786010742,None,200.4552059173584,None,201.46950006484985,201.81982898712158,201.46950006484985,201.81982898712158,200.4552059173584,None,200.4552059173584,None,200.4552059173584,None,-1,-1,1,True,507.68494606018066,686.302900314331,right,203.5360450744629,None,pp_16,icub,clamp,2021_Dec_23_1523,exp,2021.2.3,59.876287482423145,
left,go,0,0,0,0,4,5,29,1,204.05177092552185,None,1,0.2801659107208252,204.05177092552185,None,204.4122450351715,None,205.41240787506104,205.76239490509033,205.41240787506104,205.76239490509033,204.4122450351715,None,204.4122450351715,None,204.4122450351715,None,-1,-1,1,True,479.36224937438965,1043.715238571167,left,207.80351400375366,None,pp_16,icub,clamp,2021_Dec_23_1523,exp,2021.2.3,59.876287482423145,
left,stop,0,0,0,0,5,0,30,2,208.3197250366211,None,1,0.3560760021209717,208.3197250366211,None,208.79844093322754,None,209.82336592674255,210.183189868927,209.82336592674255,210.183189868927,208.79844093322754,None,208.79844093322754,None,208.79844093322754,None,550,650,1,True,88.2110595703125,-1.0,-1,213.79581904411316,None,pp_16,icub,clamp,2021_Dec_23_1523,exp,2021.2.3,59.876287482423145,
right,go,0,0,0,0,5,1,31,3,214.3264400959015,None,1,0.6460058689117432,214.3264400959015,None,215.06046986579895,None,None,None,None,None,215.06046986579895,None,215.06046986579895,None,215.06046986579895,None,,,0,False,-1.0,-1.0,-1,215.21187686920166,None,pp_16,icub,clamp,2021_Dec_23_1523,exp,2021.2.3,59.876287482423145,
left,stop,0,0,0,0,5,2,32,2,215.70414996147156,None,1,0.3883519172668457,215.70414996147156,None,216.1918249130249,None,217.17395901679993,217.4976670742035,217.17395901679993,217.4976670742035,216.1918249130249,None,216.1918249130249,None,216.1918249130249,None,600,650,0,True,779.0262699127197,830.3041458129883,left,219.67134189605713,None,pp_16,icub,clamp,2021_Dec_23_1523,exp,2021.2.3,59.876287482423145,
right,stop,0,0,0,0,5,3,33,5,220.17570686340332,None,1,1.191295862197876,220.17570686340332,None,221.45742297172546,None,222.48667001724243,222.83131408691406,222.48667001724243,222.83131408691406,221.45742297172546,None,221.45742297172546,None,221.45742297172546,None,550,650,1,True,768.9964771270752,-1.0,-1,227.1398389339447,None,pp_16,icub,clamp,2021_Dec_23_1523,exp,2021.2.3,59.876287482423145,
right,go,0,0,0,0,5,4,34,3,227.63337302207947,None,1,0.8120038509368896,227.63337302207947,None,228.5519700050354,None,229.53117108345032,229.89697098731995,229.53117108345032,229.89697098731995,228.5519700050354,None,228.5519700050354,None,228.5519700050354,None,-1,-1,1,True,872.2555637359619,1212.6224040985107,right,232.536278963089,None,pp_16,icub,clamp,2021_Dec_23_1523,exp,2021.2.3,59.876287482423145,
left,go,0,0,0,0,5,5,35,1,233.0662920475006,None,1,0.6065900325775146,233.0662920475006,None,233.7918050289154,None,234.82182908058167,235.17236590385437,234.82182908058167,235.17236590385437,233.7918050289154,None,233.7918050289154,None,233.7918050289154,None,-1,-1,1,True,523.3340263366699,1619.2073822021484,left,237.84002709388733,None,pp_16,icub,clamp,2021_Dec_23_1523,exp,2021.2.3,59.876287482423145,
left,go,0,0,0,0,6,0,36,1,238.3522539138794,None,1,0.36321187019348145,238.3522539138794,None,238.8307650089264,None,239.8331298828125,240.19638204574585,239.8331298828125,240.19638204574585,238.8307650089264,None,238.8307650089264,None,238.8307650089264,None,-1,-1,1,True,736.1347675323486,1402.2982120513916,left,242.8653450012207,None,pp_16,icub,clamp,2021_Dec_23_1523,exp,2021.2.3,59.876287482423145,
right,stop,0,0,0,0,6,1,37,5,243.36902689933777,None,1,0.31781983375549316,243.36902689933777,None,243.7882490158081,None,244.81386399269104,245.1549370288849,244.81386399269104,245.1549370288849,243.7882490158081,None,243.7882490158081,None,243.7882490158081,None,550,700,1,True,326.46894454956055,-1.0,-1,249.0132029056549,None,pp_16,icub,clamp,2021_Dec_23_1523,exp,2021.2.3,59.876287482423145,
left,stop,0,0,0,0,6,2,38,2,249.54406309127808,None,1,0.9364719390869141,249.54406309127808,None,250.58752989768982,None,251.5669870376587,251.91101598739624,251.5669870376587,251.91101598739624,250.58752989768982,None,250.58752989768982,None,250.58752989768982,None,550,750,0,True,801.5890121459961,765.0437355041504,left,254.0512728691101,None,pp_16,icub,clamp,2021_Dec_23_1523,exp,2021.2.3,59.876287482423145,
right,stop,0,0,0,0,6,3,39,5,254.54569506645203,None,1,1.2808380126953125,254.54569506645203,None,255.950443983078,None,256.96863293647766,257.32266998291016,256.96863293647766,257.32266998291016,255.950443983078,None,255.950443983078,None,255.950443983078,None,500,750,0,True,1134.0630054473877,698.925256729126,right,259.6823649406433,None,pp_16,icub,clamp,2021_Dec_23_1523,exp,2021.2.3,59.876287482423145,
left,go,0,0,0,0,6,4,40,1,260.2180058956146,None,1,1.9325039386749268,260.2180058956146,None,262.2408699989319,None,263.2711269855499,263.6404469013214,263.2711269855499,263.6404469013214,262.2408699989319,None,262.2408699989319,None,262.2408699989319,None,-1,-1,1,True,804.6438694000244,1670.9794998168945,left,266.6005630493164,None,pp_16,icub,clamp,2021_Dec_23_1523,exp,2021.2.3,59.876287482423145,
left,go,0,0,0,0,6,5,41,1,267.10350799560547,None,1,0.5441269874572754,267.10350799560547,None,267.76788997650146,None,268.7717900276184,269.11876606941223,268.7717900276184,269.11876606941223,267.76788997650146,None,267.76788997650146,None,267.76788997650146,None,-1,-1,1,True,371.4778423309326,1140.2561664581299,left,271.1892600059509,None,pp_16,icub,clamp,2021_Dec_23_1523,exp,2021.2.3,59.876287482423145,
right,go,0,0,0,0,7,0,42,4,271.7086238861084,None,1,0.3618810176849365,271.7086238861084,None,272.18661403656006,None,273.20391297340393,273.56520795822144,273.20391297340393,273.56520795822144,272.18661403656006,None,272.18661403656006,None,272.18661403656006,None,-1,-1,1,True,572.796106338501,1363.8012409210205,right,276.0332820415497,None,pp_16,icub,clamp,2021_Dec_23_1523,exp,2021.2.3,59.876287482423145,
right,stop,0,0,0,0,7,1,43,5,276.54927587509155,None,1,0.4841799736022949,276.54927587509155,None,277.12035489082336,None,278.1423759460449,278.5051429271698,278.1423759460449,278.5051429271698,277.12035489082336,None,277.12035489082336,None,277.12035489082336,None,500,700,1,True,459.09976959228516,-1.0,-1,282.4489200115204,None,pp_16,icub,clamp,2021_Dec_23_1523,exp,2021.2.3,59.876287482423145,
right,go,0,0,0,0,7,2,44,3,282.9798860549927,None,1,0.712244987487793,282.9798860549927,None,283.7768409252167,None,284.75164008140564,285.112606048584,284.75164008140564,285.112606048584,283.7768409252167,None,283.7768409252167,None,283.7768409252167,None,-1,-1,1,True,718.6524868011475,1070.4929828643799,right,287.435378074646,None,pp_16,icub,clamp,2021_Dec_23_1523,exp,2021.2.3,59.876287482423145,
right,stop,0,0,0,0,7,3,45,5,287.94027304649353,None,1,0.39331698417663574,287.94027304649353,None,288.41407108306885,None,289.42970609664917,289.79144501686096,289.42970609664917,289.79144501686096,288.41407108306885,None,288.41407108306885,None,288.41407108306885,None,500,750,0,True,1035.435676574707,702.4886608123779,right,292.05108094215393,None,pp_16,icub,clamp,2021_Dec_23_1523,exp,2021.2.3,59.876287482423145,
right,go,0,0,0,0,7,4,46,4,292.5709249973297,None,1,1.305649995803833,292.5709249973297,None,293.97763895988464,None,295.00374388694763,295.35869693756104,295.00374388694763,295.35869693756104,293.97763895988464,None,293.97763895988464,None,293.97763895988464,None,-1,-1,1,True,388.77058029174805,1830.5389881134033,right,298.10724902153015,None,pp_16,icub,clamp,2021_Dec_23_1523,exp,2021.2.3,59.876287482423145,
right,go,0,0,0,0,7,5,47,4,298.6232659816742,None,1,0.39507603645324707,298.6232659816742,None,299.1041769981384,None,300.13306307792664,300.4713110923767,300.13306307792664,300.4713110923767,299.1041769981384,None,299.1041769981384,None,299.1041769981384,None,-1,-1,1,True,373.8870620727539,1386.5461349487305,right,302.74841594696045,None,pp_16,icub,clamp,2021_Dec_23_1523,exp,2021.2.3,59.876287482423145,
left,stop,0,0,0,0,8,0,48,2,303.2531659603119,None,1,0.5813782215118408,303.2531659603119,None,303.9200279712677,None,304.9474959373474,305.3017978668213,304.9474959373474,305.3017978668213,303.9200279712677,None,303.9200279712677,None,303.9200279712677,None,500,700,1,True,418.2131290435791,-1.0,-1,309.2324740886688,None,pp_16,icub,clamp,2021_Dec_23_1523,exp,2021.2.3,59.876287482423145,
right,go,0,0,0,0,8,1,49,4,309.7641520500183,None,1,0.6757969856262207,309.7641520500183,None,310.5604798793793,None,311.52900290489197,311.87888503074646,311.52900290489197,311.87888503074646,310.5604798793793,None,310.5604798793793,None,310.5604798793793,None,-1,-1,1,True,414.2756462097168,1121.6580867767334,right,313.98718190193176,None,pp_16,icub,clamp,2021_Dec_23_1523,exp,2021.2.3,59.876287482423145,
right,go,0,0,0,0,8,2,50,4,314.4901690483093,None,1,0.5252370834350586,314.4901690483093,None,315.0958819389343,None,316.09282088279724,316.41371393203735,316.09282088279724,316.41371393203735,315.0958819389343,None,315.0958819389343,None,315.0958819389343,None,-1,-1,1,True,609.544038772583,1246.934175491333,right,318.82448506355286,None,pp_16,icub,clamp,2021_Dec_23_1523,exp,2021.2.3,59.876287482423145,
left,stop,0,0,0,0,8,3,51,2,319.33938002586365,None,1,0.5852069854736328,319.33938002586365,None,320.0048370361328,None,321.00647497177124,321.37477588653564,321.00647497177124,321.37477588653564,320.0048370361328,None,320.0048370361328,None,320.0048370361328,None,550,700,1,True,374.9392032623291,-1.0,-1,325.2795009613037,None,pp_16,icub,clamp,2021_Dec_23_1523,exp,2021.2.3,59.876287482423145,
right,go,0,0,0,0,8,4,52,4,325.8097150325775,None,1,0.8292059898376465,325.8097150325775,None,326.72952604293823,None,327.72581791877747,328.07054901123047,327.72581791877747,328.07054901123047,326.72952604293823,None,326.72952604293823,None,326.72952604293823,None,-1,-1,1,True,668.7324047088623,1487.6275062561035,right,330.7857189178467,None,pp_16,icub,clamp,2021_Dec_23_1523,exp,2021.2.3,59.876287482423145,
left,go,0,0,0,0,8,5,53,0,331.30123805999756,None,1,0.67600417137146,331.30123805999756,None,332.08646988868713,None,333.11609506607056,333.4630708694458,333.11609506607056,333.4630708694458,332.08646988868713,None,332.08646988868713,None,332.08646988868713,None,-1,-1,1,True,806.0588836669922,1144.9813842773438,left,335.9448609352112,None,pp_16,icub,clamp,2021_Dec_23_1523,exp,2021.2.3,59.876287482423145,
left,go,0,0,0,0,9,0,54,0,336.4777019023895,None,1,0.49448585510253906,336.4777019023895,None,337.082151889801,None,338.0811200141907,338.4316210746765,338.0811200141907,338.4316210746765,337.082151889801,None,337.082151889801,None,337.082151889801,None,-1,-1,1,True,583.8830471038818,1160.954236984253,left,340.73679995536804,None,pp_16,icub,clamp,2021_Dec_23_1523,exp,2021.2.3,59.876287482423145,
right,go,0,0,0,0,9,1,55,3,341.27094888687134,None,1,0.39586496353149414,341.27094888687134,None,341.75212502479553,None,342.7554838657379,343.1166958808899,342.7554838657379,343.1166958808899,341.75212502479553,None,341.75212502479553,None,341.75212502479553,None,-1,-1,1,True,310.3048801422119,774.019718170166,right,344.72362995147705,None,pp_16,icub,clamp,2021_Dec_23_1523,exp,2021.2.3,59.876287482423145,
left,stop,0,0,0,0,9,2,56,2,345.2241060733795,None,1,0.49295592308044434,345.2241060733795,None,345.82792592048645,None,346.860543012619,347.21532702445984,346.860543012619,347.21532702445984,345.82792592048645,None,345.82792592048645,None,345.82792592048645,None,600,700,0,True,1329.1172981262207,702.3882865905762,left,349.7416729927063,None,pp_16,icub,clamp,2021_Dec_23_1523,exp,2021.2.3,59.876287482423145,
left,stop,0,0,0,0,9,3,57,2,350.2485189437866,None,1,1.266624927520752,350.2485189437866,None,351.63941407203674,None,352.6600499153137,353.0226728916168,352.6600499153137,353.0226728916168,351.63941407203674,None,351.63941407203674,None,351.63941407203674,None,550,700,1,True,338.1915092468262,-1.0,-1,356.8992109298706,None,pp_16,icub,clamp,2021_Dec_23_1523,exp,2021.2.3,59.876287482423145,
right,stop,0,0,0,0,9,4,58,5,357.39097785949707,None,1,1.1418681144714355,357.39097785949707,None,358.6202759742737,None,359.60049986839294,359.9518129825592,359.60049986839294,359.9518129825592,358.6202759742737,None,358.6202759742737,None,358.6202759742737,None,600,700,0,True,482.29432106018066,820.7376003265381,right,361.8017599582672,None,pp_16,icub,clamp,2021_Dec_23_1523,exp,2021.2.3,59.876287482423145,
left,stop,0,0,0,0,9,5,59,2,362.3180968761444,None,1,1.2703790664672852,362.3180968761444,None,363.72073793411255,None,364.7120978832245,365.0348160266876,364.7120978832245,365.0348160266876,363.72073793411255,None,363.72073793411255,None,363.72073793411255,None,600,650,1,True,17.244577407836914,-1.0,-1,368.63420701026917,None,pp_16,icub,clamp,2021_Dec_23_1523,exp,2021.2.3,59.876287482423145,
left,go,0,0,0,0,10,0,60,0,369.12649607658386,None,1,1.7752771377563477,369.12649607658386,None,371.0363700389862,None,372.0417070388794,372.39565801620483,372.0417070388794,372.39565801620483,371.0363700389862,None,371.0363700389862,None,371.0363700389862,None,-1,-1,1,True,728.0988693237305,874.0122318267822,left,374.5276279449463,None,pp_16,icub,clamp,2021_Dec_23_1523,exp,2021.2.3,59.876287482423145,
right,go,0,0,0,0,10,1,61,3,375.0500090122223,None,1,0.5165519714355469,375.0500090122223,None,375.6570270061493,None,376.64736104011536,376.9939229488373,376.64736104011536,376.9939229488373,375.6570270061493,None,375.6570270061493,None,375.6570270061493,None,-1,-1,1,True,538.2654666900635,1651.6480445861816,right,379.75082993507385,None,pp_16,icub,clamp,2021_Dec_23_1523,exp,2021.2.3,59.876287482423145,
left,go,0,0,0,0,10,2,62,0,380.28428292274475,None,1,0.32987284660339355,380.28428292274475,None,380.7049939632416,None,381.6984770298004,382.0467760562897,381.6984770298004,382.0467760562897,380.7049939632416,None,380.7049939632416,None,380.7049939632416,None,-1,-1,1,True,495.0745105743408,1292.285442352295,left,384.36185002326965,None,pp_16,icub,clamp,2021_Dec_23_1523,exp,2021.2.3,59.876287482423145,
right,stop,0,0,0,0,10,3,63,5,384.87616896629333,None,1,0.3381960391998291,384.87616896629333,None,385.29473900794983,None,386.292249917984,386.6386089324951,386.292249917984,386.6386089324951,385.29473900794983,None,385.29473900794983,None,385.29473900794983,None,650,650,1,True,377.5308132171631,-1.0,-1,390.5693669319153,None,pp_16,icub,clamp,2021_Dec_23_1523,exp,2021.2.3,59.876287482423145,
left,go,0,0,0,0,10,4,64,0,391.09903502464294,None,1,1.0658290386199951,391.09903502464294,None,392.2672998905182,None,393.2400698661804,393.58556509017944,393.2400698661804,393.58556509017944,392.2672998905182,None,392.2672998905182,None,392.2672998905182,None,-1,-1,1,True,683.6240291595459,1472.3567962646484,left,396.28876304626465,None,pp_16,icub,clamp,2021_Dec_23_1523,exp,2021.2.3,59.876287482423145,
right,stop,0,0,0,0,10,5,65,5,396.79792308807373,None,1,0.637505054473877,396.79792308807373,None,397.52655386924744,None,398.54467606544495,398.8993670940399,398.54467606544495,398.8993670940399,397.52655386924744,None,397.52655386924744,None,397.52655386924744,None,650,700,1,True,362.8041744232178,-1.0,-1,402.7852900028229,None,pp_16,icub,clamp,2021_Dec_23_1523,exp,2021.2.3,59.876287482423145,
left,go,0,0,0,0,11,0,66,0,403.315927028656,None,1,1.0359821319580078,403.315927028656,None,404.4820420742035,None,405.46838307380676,405.80369687080383,405.46838307380676,405.80369687080383,404.4820420742035,None,404.4820420742035,None,404.4820420742035,None,-1,-1,1,True,559.5474243164062,1139.2192840576172,left,408.06883096694946,None,pp_16,icub,clamp,2021_Dec_23_1523,exp,2021.2.3,59.876287482423145,
right,stop,0,0,0,0,11,1,67,5,408.60504698753357,None,1,1.2182979583740234,408.60504698753357,None,409.94698786735535,None,410.96615290641785,411.313924074173,410.96615290641785,411.313924074173,409.94698786735535,None,409.94698786735535,None,409.94698786735535,None,650,750,1,True,361.5989685058594,-1.0,-1,415.2011089324951,None,pp_16,icub,clamp,2021_Dec_23_1523,exp,2021.2.3,59.876287482423145,
left,go,0,0,0,0,11,2,68,0,415.73143100738525,None,1,1.1643900871276855,415.73143100738525,None,417.02119302749634,None,418.0032858848572,418.3554940223694,418.0032858848572,418.3554940223694,417.02119302749634,None,417.02119302749634,None,417.02119302749634,None,-1,-1,1,True,676.783561706543,1192.4121379852295,left,420.7824420928955,None,pp_16,icub,clamp,2021_Dec_23_1523,exp,2021.2.3,59.876287482423145,
right,go,0,0,0,0,11,3,69,3,421.2837700843811,None,1,1.2384231090545654,421.2837700843811,None,422.6284248828888,None,423.65954208374023,424.0189609527588,423.65954208374023,424.0189609527588,422.6284248828888,None,422.6284248828888,None,422.6284248828888,None,-1,-1,1,True,428.6627769470215,1148.1447219848633,right,426.1099519729614,None,pp_16,icub,clamp,2021_Dec_23_1523,exp,2021.2.3,59.876287482423145,
left,stop,0,0,0,0,11,4,70,2,426.6441490650177,None,1,2.3305039405822754,426.6441490650177,None,429.0971190929413,None,430.10719203948975,430.46971893310547,430.10719203948975,430.46971893310547,429.0971190929413,None,429.0971190929413,None,429.0971190929413,None,650,800,1,True,873.6627101898193,-1.0,-1,434.8737099170685,None,pp_16,icub,clamp,2021_Dec_23_1523,exp,2021.2.3,59.876287482423145,
right,stop,0,0,0,0,11,5,71,5,435.4053339958191,None,1,1.1976988315582275,435.4053339958191,None,436.69736194610596,None,437.6942050457001,438.04815888404846,437.6942050457001,438.04815888404846,436.69736194610596,None,436.69736194610596,None,436.69736194610596,None,700,800,1,True,583.0864906311035,-1.0,-1,442.1614499092102,None,pp_16,icub,clamp,2021_Dec_23_1523,exp,2021.2.3,59.876287482423145,
right,go,0,0,0,0,12,0,72,3,442.69267988204956,None,1,0.9761068820953369,442.69267988204956,None,443.79772305488586,None,444.78129291534424,445.1083528995514,444.78129291534424,445.1083528995514,443.79772305488586,None,443.79772305488586,None,443.79772305488586,None,-1,-1,1,True,766.538143157959,866.39404296875,right,447.32879090309143,None,pp_16,icub,clamp,2021_Dec_23_1523,exp,2021.2.3,59.876287482423145,
left,stop,0,0,0,0,12,1,73,2,447.83959197998047,None,1,0.8249640464782715,447.83959197998047,None,448.75581908226013,None,449.7571630477905,450.11549186706543,449.7571630477905,450.11549186706543,448.75581908226013,None,448.75581908226013,None,448.75581908226013,None,700,850,1,True,522.686243057251,-1.0,-1,454.1633129119873,None,pp_16,icub,clamp,2021_Dec_23_1523,exp,2021.2.3,59.876287482423145,
left,go,0,0,0,0,12,2,74,0,454.69422793388367,None,1,1.2274508476257324,454.69422793388367,None,456.0492808818817,None,457.04164600372314,457.39112997055054,457.04164600372314,457.39112997055054,456.0492808818817,None,456.0492808818817,None,456.0492808818817,None,-1,-1,1,True,413.73658180236816,2482.311010360718,left,460.8275799751282,None,pp_16,icub,clamp,2021_Dec_23_1523,exp,2021.2.3,59.876287482423145,
left,go,0,0,0,0,12,3,75,1,461.3337709903717,None,1,0.7853858470916748,461.3337709903717,None,462.24276900291443,None,463.2324249744415,463.562695980072,463.2324249744415,463.562695980072,462.24276900291443,None,462.24276900291443,None,462.24276900291443,None,-1,-1,1,True,593.0607318878174,2026.111364364624,left,466.7617828845978,None,pp_16,icub,clamp,2021_Dec_23_1523,exp,2021.2.3,59.876287482423145,
right,go,0,0,0,0,12,4,76,4,467.27799701690674,None,1,0.78131103515625,467.27799701690674,None,468.18711495399475,None,469.2053849697113,469.5659680366516,469.2053849697113,469.5659680366516,468.18711495399475,None,468.18711495399475,None,468.18711495399475,None,-1,-1,1,True,784.5826148986816,1321.2840557098389,right,472.1952579021454,None,pp_16,icub,clamp,2021_Dec_23_1523,exp,2021.2.3,59.876287482423145,
right,go,0,0,0,0,12,5,77,3,472.72739601135254,None,1,0.641146183013916,472.72739601135254,None,473.4542329311371,None,474.4657139778137,474.8152918815613,474.4657139778137,474.8152918815613,473.4542329311371,None,473.4542329311371,None,473.4542329311371,None,-1,-1,1,True,559.77463722229,984.6563339233398,right,476.8656470775604,None,pp_16,icub,clamp,2021_Dec_23_1523,exp,2021.2.3,59.876287482423145,
left,stop,1,0,1,0,0,0,0,2,492.22346687316895,None,1,1.913985013961792,492.22346687316895,None,494.2281210422516,None,495.2533779144287,495.6015639305115,495.2533779144287,495.6015639305115,494.2281210422516,None,494.2281210422516,None,494.2281210422516,None,750,850,1,True,935.4774951934814,-1.0,-1,500.0527410507202,None,pp_16,icub,clamp,2021_Dec_23_1523,exp,2021.2.3,59.876287482423145,
right,go,1,0,1,0,0,1,1,3,500.5852620601654,None,1,0.9374570846557617,500.5852620601654,None,501.627760887146,None,502.6122760772705,502.9546048641205,502.6122760772705,502.9546048641205,501.627760887146,None,501.627760887146,None,501.627760887146,None,-1,-1,1,True,399.22189712524414,1202.0258903503418,right,505.1308219432831,None,pp_16,icub,clamp,2021_Dec_23_1523,exp,2021.2.3,59.876287482423145,
left,stop,1,0,1,0,0,2,2,2,505.64762806892395,None,1,0.4994540214538574,505.64762806892395,None,506.2529709339142,None,507.2507209777832,507.59470295906067,507.2507209777832,507.59470295906067,506.2529709339142,None,506.2529709339142,None,506.2529709339142,None,800,850,0,True,472.93901443481445,955.1401138305664,left,509.55974197387695,None,pp_16,icub,clamp,2021_Dec_23_1523,exp,2021.2.3,59.876287482423145,
left,go,1,0,1,0,0,3,3,0,510.0768189430237,None,1,1.0106210708618164,510.0768189430237,None,511.1730239391327,None,512.1708970069885,512.5301790237427,512.1708970069885,512.5301790237427,511.1730239391327,None,511.1730239391327,None,511.1730239391327,None,-1,-1,1,True,428.2493591308594,1760.3683471679688,left,515.2546999454498,None,pp_16,icub,clamp,2021_Dec_23_1523,exp,2021.2.3,59.876287482423145,
left,stop,1,0,1,0,0,4,4,2,515.7569329738617,None,1,0.41660094261169434,515.7569329738617,None,516.2971460819244,None,517.3133599758148,517.6458759307861,517.3133599758148,517.6458759307861,516.2971460819244,None,516.2971460819244,None,516.2971460819244,None,750,850,1,True,392.0292854309082,-1.0,-1,521.5676500797272,None,pp_16,icub,clamp,2021_Dec_23_1523,exp,2021.2.3,59.876287482423145,
left,stop,1,0,1,0,0,5,5,2,522.0978899002075,None,1,1.7529048919677734,522.0978899002075,None,523.9528269767761,None,524.9328880310059,525.2949850559235,524.9328880310059,525.2949850559235,523.9528269767761,None,523.9528269767761,None,523.9528269767761,None,800,850,1,True,956.1402797698975,-1.0,-1,529.7852129936218,None,pp_16,icub,clamp,2021_Dec_23_1523,exp,2021.2.3,59.876287482423145,
right,go,1,0,1,0,1,0,6,3,530.3163020610809,None,1,0.6535351276397705,530.3163020610809,None,531.0504109859467,None,532.033921957016,532.3859570026398,532.033921957016,532.3859570026398,531.0504109859467,None,531.0504109859467,None,531.0504109859467,None,-1,-1,1,True,795.1784133911133,991.7373657226562,right,534.7014830112457,None,pp_16,icub,clamp,2021_Dec_23_1523,exp,2021.2.3,59.876287482423145,
left,go,1,0,1,0,1,1,7,1,535.2178859710693,None,1,0.6645290851593018,535.2178859710693,None,535.9837899208069,None,536.9999079704285,537.3634519577026,536.9999079704285,537.3634519577026,535.9837899208069,None,535.9837899208069,None,535.9837899208069,None,-1,-1,1,True,927.5257587432861,1433.8774681091309,left,540.2462458610535,None,pp_16,icub,clamp,2021_Dec_23_1523,exp,2021.2.3,59.876287482423145,
right,go,1,0,1,0,1,2,8,3,540.7535290718079,None,1,0.44376206398010254,540.7535290718079,None,541.2973449230194,None,542.3015990257263,542.6277089118958,542.3015990257263,542.6277089118958,541.2973449230194,None,541.2973449230194,None,541.2973449230194,None,-1,-1,1,True,773.5826969146729,1193.3531761169434,right,545.1711759567261,None,pp_16,icub,clamp,2021_Dec_23_1523,exp,2021.2.3,59.876287482423145,
left,go,1,0,1,0,1,3,9,1,545.7050518989563,None,1,0.5650229454040527,545.7050518989563,None,546.3709580898285,None,547.3897080421448,547.7295529842377,547.3897080421448,547.7295529842377,546.3709580898285,None,546.3709580898285,None,546.3709580898285,None,-1,-1,1,True,1001.9946098327637,962.5608921051025,left,550.2081899642944,None,pp_16,icub,clamp,2021_Dec_23_1523,exp,2021.2.3,59.876287482423145,
left,go,1,0,1,0,1,4,10,0,550.7134959697723,None,1,0.6843771934509277,550.7134959697723,None,551.5042989253998,None,552.5337529182434,552.8879199028015,552.5337529182434,552.8879199028015,551.5042989253998,None,551.5042989253998,None,551.5042989253998,None,-1,-1,1,True,715.1873111724854,1205.4009437561035,left,555.2965750694275,None,pp_16,icub,clamp,2021_Dec_23_1523,exp,2021.2.3,59.876287482423145,
right,stop,1,0,1,0,1,5,11,5,555.810065984726,None,1,0.7062900066375732,555.810065984726,None,556.601646900177,None,557.6171770095825,557.9755458831787,557.6171770095825,557.9755458831787,556.601646900177,None,556.601646900177,None,556.601646900177,None,850,850,0,True,829.2269706726074,1051.3076782226562,right,560.3895149230957,None,pp_16,icub,clamp,2021_Dec_23_1523,exp,2021.2.3,59.876287482423145,
left,go,1,0,1,0,2,0,12,0,560.9016849994659,None,1,1.355346918106079,560.9016849994659,None,562.369765996933,None,563.3731799125671,563.7263250350952,563.3731799125671,563.7263250350952,562.369765996933,None,562.369765996933,None,562.369765996933,None,-1,-1,1,True,363.09170722961426,1499.3481636047363,left,566.1089169979095,None,pp_16,icub,clamp,2021_Dec_23_1523,exp,2021.2.3,59.876287482423145,
left,go,1,0,1,0,2,1,13,1,566.6223640441895,None,1,0.420910120010376,566.6223640441895,None,567.1608579158783,None,568.1859760284424,568.5369379520416,568.1859760284424,568.5369379520416,567.1608579158783,None,567.1608579158783,None,567.1608579158783,None,-1,-1,1,True,491.2431240081787,1417.7250862121582,left,570.9706878662109,None,pp_16,icub,clamp,2021_Dec_23_1523,exp,2021.2.3,59.876287482423145,
right,go,1,0,1,0,2,2,14,3,571.478353023529,None,1,0.432858943939209,571.478353023529,None,572.0200228691101,None,573.0416989326477,573.3703169822693,573.0416989326477,573.3703169822693,572.0200228691101,None,572.0200228691101,None,572.0200228691101,None,-1,-1,1,True,589.1070365905762,920.7451343536377,right,575.4131500720978,None,pp_16,icub,clamp,2021_Dec_23_1523,exp,2021.2.3,59.876287482423145,
right,stop,1,0,1,0,2,3,15,5,575.9255790710449,None,1,0.3938000202178955,575.9255790710449,None,576.4103729724884,None,577.4197909832001,577.7652080059052,577.4197909832001,577.7652080059052,576.4103729724884,None,576.4103729724884,None,576.4103729724884,None,850,800,0,True,374.67384338378906,730.318546295166,right,579.3938159942627,None,pp_16,icub,clamp,2021_Dec_23_1523,exp,2021.2.3,59.876287482423145,
left,go,1,0,1,0,2,4,16,0,579.9082860946655,None,1,1.2225990295410156,579.9082860946655,None,581.2402920722961,None,582.2719089984894,582.6300559043884,582.2719089984894,582.6300559043884,581.2402920722961,None,581.2402920722961,None,581.2402920722961,None,-1,-1,1,True,459.55872535705566,770.3781127929688,left,584.3487260341644,None,pp_16,icub,clamp,2021_Dec_23_1523,exp,2021.2.3,59.876287482423145,
right,stop,1,0,1,0,2,5,17,5,584.851823091507,None,1,0.3111410140991211,584.851823091507,None,585.271162033081,None,586.2791819572449,586.6300358772278,586.2791819572449,586.6300358772278,585.271162033081,None,585.271162033081,None,585.271162033081,None,850,750,0,True,771.4531421661377,771.9583511352539,right,588.7027468681335,None,pp_16,icub,clamp,2021_Dec_23_1523,exp,2021.2.3,59.876287482423145,
left,go,1,0,1,0,3,0,18,1,589.2109880447388,None,1,0.6790380477905273,589.2109880447388,None,589.999979019165,None,591.034215927124,591.3645560741425,591.034215927124,591.3645560741425,589.999979019165,None,589.999979019165,None,589.999979019165,None,-1,-1,1,True,819.9801445007324,1183.8428974151611,left,593.8851978778839,None,pp_16,icub,clamp,2021_Dec_23_1523,exp,2021.2.3,59.876287482423145,
right,stop,1,0,1,0,3,1,19,5,594.4046580791473,None,1,0.31662607192993164,594.4046580791473,None,594.8208780288696,None,595.8471319675446,596.2087750434875,595.8471319675446,596.2087750434875,594.8208780288696,None,594.8208780288696,None,594.8208780288696,None,850,700,1,True,809.6659183502197,-1.0,-1,600.5048658847809,None,pp_16,icub,clamp,2021_Dec_23_1523,exp,2021.2.3,59.876287482423145,
left,go,1,0,1,0,3,2,20,1,601.0366718769073,None,1,0.03593897819519043,601.0366718769073,None,601.1546709537506,None,602.1618659496307,602.5174400806427,602.1618659496307,602.5174400806427,601.1546709537506,None,601.1546709537506,None,601.1546709537506,None,-1,-1,1,True,803.7567138671875,877.9706954956055,left,604.7111110687256,None,pp_16,icub,clamp,2021_Dec_23_1523,exp,2021.2.3,59.876287482423145,
right,stop,1,0,1,0,3,3,21,5,605.2265100479126,None,1,0.45839715003967285,605.2265100479126,None,605.7681949138641,None,606.7704448699951,607.1309978961945,606.7704448699951,607.1309978961945,605.7681949138641,None,605.7681949138641,None,605.7681949138641,None,850,750,0,True,423.33436012268066,661.4761352539062,right,608.7374720573425,None,pp_16,icub,clamp,2021_Dec_23_1523,exp,2021.2.3,59.876287482423145,
left,stop,1,0,1,0,3,4,22,2,609.2574698925018,None,1,0.9704859256744385,609.2574698925018,None,610.3514459133148,None,611.3529760837555,611.7011189460754,611.3529760837555,611.7011189460754,610.3514459133148,None,610.3514459133148,None,610.3514459133148,None,850,700,0,True,322.0341205596924,1001.4030933380127,left,613.547837972641,None,pp_16,icub,clamp,2021_Dec_23_1523,exp,2021.2.3,59.876287482423145,
left,stop,1,0,1,0,3,5,23,2,614.0592250823975,None,1,0.5848779678344727,614.0592250823975,None,614.7244770526886,None,615.7559299468994,616.1194570064545,615.7559299468994,616.1194570064545,614.7244770526886,None,614.7244770526886,None,614.7244770526886,None,800,700,1,True,450.83117485046387,-1.0,-1,620.0871560573578,None,pp_16,icub,clamp,2021_Dec_23_1523,exp,2021.2.3,59.876287482423145,
left,go,1,0,1,0,4,0,24,1,620.5805330276489,None,1,0.14319300651550293,620.5805330276489,None,620.8227090835571,None,621.8350899219513,622.1794769763947,621.8350899219513,622.1794769763947,620.8227090835571,None,620.8227090835571,None,620.8227090835571,None,-1,-1,1,True,479.97212409973145,1484.4348430633545,left,624.6740319728851,None,pp_16,icub,clamp,2021_Dec_23_1523,exp,2021.2.3,59.876287482423145,
right,go,1,0,1,0,4,1,25,3,625.1901369094849,None,1,0.37292003631591797,625.1901369094849,None,625.6682288646698,None,626.6794390678406,627.0344660282135,626.6794390678406,627.0344660282135,625.6682288646698,None,625.6682288646698,None,625.6682288646698,None,-1,-1,1,True,533.3611965179443,831.6934108734131,right,628.9305739402771,None,pp_16,icub,clamp,2021_Dec_23_1523,exp,2021.2.3,59.876287482423145,
right,go,1,0,1,0,4,2,26,3,629.4467768669128,None,1,0.36026787757873535,629.4467768669128,None,629.9258060455322,None,630.9205849170685,631.2636070251465,630.9205849170685,631.2636070251465,629.9258060455322,None,629.9258060455322,None,629.9258060455322,None,-1,-1,1,True,325.4518508911133,1231.9984436035156,right,633.3669340610504,None,pp_16,icub,clamp,2021_Dec_23_1523,exp,2021.2.3,59.876287482423145,
left,go,1,0,1,0,4,3,27,0,633.8832218647003,None,1,0.35170698165893555,633.8832218647003,None,634.362902879715,None,635.3719608783722,635.7257840633392,635.3719608783722,635.7257840633392,634.362902879715,None,634.362902879715,None,634.362902879715,None,-1,-1,1,True,334.9881172180176,1055.9170246124268,left,637.6331670284271,None,pp_16,icub,clamp,2021_Dec_23_1523,exp,2021.2.3,59.876287482423145,
left,stop,1,0,1,0,4,4,28,2,638.1465718746185,None,1,0.6412379741668701,638.1465718746185,None,638.8786950111389,None,639.9026350975037,640.2587530612946,639.9026350975037,640.2587530612946,638.8786950111389,None,638.8786950111389,None,638.8786950111389,None,850,700,1,True,397.9778289794922,-1.0,-1,644.1729760169983,None,pp_16,icub,clamp,2021_Dec_23_1523,exp,2021.2.3,59.876287482423145,
right,go,1,0,1,0,4,5,29,4,644.702516078949,None,1,0.4940640926361084,644.702516078949,None,645.3132150173187,None,None,None,None,None,645.3132150173187,None,645.3132150173187,None,645.3132150173187,None,,,0,False,-1.0,-1.0,-1,645.4240598678589,None,pp_16,icub,clamp,2021_Dec_23_1523,exp,2021.2.3,59.876287482423145,
left,go,1,0,1,0,5,0,30,0,645.947329044342,None,1,0.3103020191192627,645.947329044342,None,646.3739640712738,None,647.3428070545197,647.7060310840607,647.3428070545197,647.7060310840607,646.3739640712738,None,646.3739640712738,None,646.3739640712738,None,-1,-1,1,True,428.42817306518555,949.4962692260742,left,649.6481990814209,None,pp_16,icub,clamp,2021_Dec_23_1523,exp,2021.2.3,59.876287482423145,
right,stop,1,0,1,0,5,1,31,5,650.1639940738678,None,1,0.688101053237915,650.1639940738678,None,650.9525129795074,None,651.9816670417786,652.3336489200592,651.9816670417786,652.3336489200592,650.9525129795074,None,650.9525129795074,None,650.9525129795074,None,900,700,0,True,339.2021656036377,859.0142726898193,right,654.0644578933716,None,pp_16,icub,clamp,2021_Dec_23_1523,exp,2021.2.3,59.876287482423145,
left,go,1,0,1,0,5,2,32,0,654.562618970871,None,1,0.7669100761413574,654.562618970871,None,655.4151349067688,None,656.4381818771362,656.7851848602295,656.4381818771362,656.7851848602295,655.4151349067688,None,655.4151349067688,None,655.4151349067688,None,-1,-1,1,True,822.4954605102539,1364.743947982788,left,659.5093400478363,None,pp_16,icub,clamp,2021_Dec_23_1523,exp,2021.2.3,59.876287482423145,
right,go,1,0,1,0,5,3,33,3,660.030266046524,None,1,0.5975649356842041,660.030266046524,None,660.7559778690338,None,661.7725858688354,662.1241970062256,661.7725858688354,662.1241970062256,660.7559778690338,None,660.7559778690338,None,660.7559778690338,None,-1,-1,1,True,354.7823429107666,1196.4185237884521,right,664.2027969360352,None,pp_16,icub,clamp,2021_Dec_23_1523,exp,2021.2.3,59.876287482423145,
right,go,1,0,1,0,5,4,34,4,664.7026309967041,None,1,0.5034689903259277,664.7026309967041,None,665.3072018623352,None,666.3195900917053,666.6738619804382,666.3195900917053,666.6738619804382,665.3072018623352,None,665.3072018623352,None,665.3072018623352,None,-1,-1,1,True,436.3076686859131,1506.004810333252,right,669.1457209587097,None,pp_16,icub,clamp,2021_Dec_23_1523,exp,2021.2.3,59.876287482423145,
right,go,1,0,1,0,5,5,35,4,669.6626710891724,None,1,0.37563109397888184,669.6626710891724,None,670.1438159942627,None,671.1540629863739,671.5015339851379,671.1540629863739,671.5015339851379,670.1438159942627,None,670.1438159942627,None,670.1438159942627,None,-1,-1,1,True,924.7391223907471,1091.7084217071533,right,674.0364329814911,None,pp_16,icub,clamp,2021_Dec_23_1523,exp,2021.2.3,59.876287482423145,
right,stop,1,0,1,0,6,0,36,5,674.5554759502411,None,1,0.42461681365966797,674.5554759502411,None,675.1012098789215,None,676.1308739185333,676.4903099536896,676.1308739185333,676.4903099536896,675.1012098789215,None,675.1012098789215,None,675.1012098789215,None,900,650,1,True,630.6862831115723,-1.0,-1,680.6057710647583,None,pp_16,icub,clamp,2021_Dec_23_1523,exp,2021.2.3,59.876287482423145,
right,go,1,0,1,0,6,1,37,4,681.1365299224854,None,1,0.6899499893188477,681.1365299224854,None,681.9349439144135,None,682.9205300807953,683.2809209823608,682.9205300807953,683.2809209823608,681.9349439144135,None,681.9349439144135,None,681.9349439144135,None,-1,-1,1,True,374.330997467041,785.9671115875244,right,684.9666800498962,None,pp_16,icub,clamp,2021_Dec_23_1523,exp,2021.2.3,59.876287482423145,
right,go,1,0,1,0,6,2,38,3,685.4913229942322,None,1,0.40644311904907227,685.4913229942322,None,685.9735329151154,None,686.9793479442596,687.30490899086,686.9793479442596,687.30490899086,685.9735329151154,None,685.9735329151154,None,685.9735329151154,None,-1,-1,1,True,590.7881259918213,1230.1597595214844,right,689.6704349517822,None,pp_16,icub,clamp,2021_Dec_23_1523,exp,2021.2.3,59.876287482423145,
right,go,1,0,1,0,6,3,39,4,690.1734628677368,None,1,0.3733558654785156,690.1734628677368,None,690.652410030365,None,691.6546459197998,692.0128829479218,691.6546459197998,692.0128829479218,690.652410030365,None,690.652410030365,None,690.652410030365,None,-1,-1,1,True,381.6332817077637,1444.394826889038,right,694.3575949668884,None,pp_16,icub,clamp,2021_Dec_23_1523,exp,2021.2.3,59.876287482423145,
left,go,1,0,1,0,6,4,40,1,694.8597960472107,None,1,0.5540771484375,694.8597960472107,None,695.5237500667572,None,696.5448620319366,696.9008550643921,696.5448620319366,696.9008550643921,695.5237500667572,None,695.5237500667572,None,695.5237500667572,None,-1,-1,1,True,568.9761638641357,1589.0350341796875,left,699.591826915741,None,pp_16,icub,clamp,2021_Dec_23_1523,exp,2021.2.3,59.876287482423145,
left,go,1,0,1,0,6,5,41,0,700.1077070236206,None,1,0.5138609409332275,700.1077070236206,None,700.7341558933258,None,701.7315449714661,702.0944678783417,701.7315449714661,702.0944678783417,700.7341558933258,None,700.7341558933258,None,700.7341558933258,None,-1,-1,1,True,532.9375267028809,1167.6404476165771,left,704.3250210285187,None,pp_16,icub,clamp,2021_Dec_23_1523,exp,2021.2.3,59.876287482423145,
right,stop,1,0,1,0,7,0,42,5,704.8505659103394,None,1,0.8961949348449707,704.8505659103394,None,705.8273460865021,None,706.826840877533,707.1801059246063,706.826840877533,707.1801059246063,705.8273460865021,None,705.8273460865021,None,705.8273460865021,None,900,700,1,True,712.7542495727539,-1.0,-1,711.4278659820557,None,pp_16,icub,clamp,2021_Dec_23_1523,exp,2021.2.3,59.876287482423145,
right,stop,1,0,1,0,7,1,43,5,711.9598798751831,None,1,0.6895389556884766,711.9598798751831,None,712.7566349506378,None,713.7407839298248,714.0926749706268,713.7407839298248,714.0926749706268,712.7566349506378,None,712.7566349506378,None,712.7566349506378,None,900,750,1,True,522.6497650146484,-1.0,-1,718.1726069450378,None,pp_16,icub,clamp,2021_Dec_23_1523,exp,2021.2.3,59.876287482423145,
left,stop,1,0,1,0,7,2,44,2,718.7022449970245,None,1,0.17722606658935547,718.7022449970245,None,719.0060229301453,None,719.9842910766602,720.3269839286804,719.9842910766602,720.3269839286804,719.0060229301453,None,719.0060229301453,None,719.0060229301453,None,900,800,1,True,502.0766258239746,-1.0,-1,724.4035799503326,None,pp_16,icub,clamp,2021_Dec_23_1523,exp,2021.2.3,59.876287482423145,
right,go,1,0,1,0,7,3,45,4,724.9332060813904,None,1,0.7941989898681641,724.9332060813904,None,725.8530380725861,None,726.8277108669281,727.1690349578857,726.8277108669281,727.1690349578857,725.8530380725861,None,725.8530380725861,None,725.8530380725861,None,-1,-1,1,True,951.5221118927002,1676.6717433929443,right,730.3637750148773,None,pp_16,icub,clamp,2021_Dec_23_1523,exp,2021.2.3,59.876287482423145,
right,go,1,0,1,0,7,4,46,4,730.8797829151154,None,1,0.6433489322662354,730.8797829151154,None,731.6086349487305,None,732.6194620132446,732.9902229309082,732.6194620132446,732.9902229309082,731.6086349487305,None,731.6086349487305,None,731.6086349487305,None,-1,-1,1,True,1144.902229309082,1301.9776344299316,right,735.95987200737,None,pp_16,icub,clamp,2021_Dec_23_1523,exp,2021.2.3,59.876287482423145,
right,go,1,0,1,0,7,5,47,3,736.4777488708496,None,1,0.9151809215545654,736.4777488708496,None,737.5112130641937,None,738.511393070221,738.8754019737244,738.511393070221,738.8754019737244,737.5112130641937,None,737.5112130641937,None,737.5112130641937,None,-1,-1,1,True,838.3245468139648,997.9352951049805,right,741.2293350696564,None,pp_16,icub,clamp,2021_Dec_23_1523,exp,2021.2.3,59.876287482423145,
left,go,1,0,1,0,8,0,48,1,741.7456710338593,None,1,1.652204990386963,741.7456710338593,None,743.5217049121857,None,744.5153520107269,744.8725690841675,744.5153520107269,744.8725690841675,743.5217049121857,None,743.5217049121857,None,743.5217049121857,None,-1,-1,1,True,504.7926902770996,884.9866390228271,left,746.7903878688812,None,pp_16,icub,clamp,2021_Dec_23_1523,exp,2021.2.3,59.876287482423145,
left,stop,1,0,1,0,8,1,49,2,747.3243069648743,None,1,0.42441892623901367,747.3243069648743,None,747.8642830848694,None,748.8634560108185,749.2252349853516,748.8634560108185,749.2252349853516,747.8642830848694,None,747.8642830848694,None,747.8642830848694,None,950,800,0,True,331.60853385925293,680.7136535644531,left,750.7714400291443,None,pp_16,icub,clamp,2021_Dec_23_1523,exp,2021.2.3,59.876287482423145,
left,go,1,0,1,0,8,2,50,0,751.2900869846344,None,1,0.9437379837036133,751.2900869846344,None,752.3296210765839,None,753.32342004776,753.6687569618225,753.32342004776,753.6687569618225,752.3296210765839,None,752.3296210765839,None,752.3296210765839,None,-1,-1,1,True,324.6145248413086,1420.2594757080078,left,755.9763450622559,None,pp_16,icub,clamp,2021_Dec_23_1523,exp,2021.2.3,59.876287482423145,
right,stop,1,0,1,0,8,3,51,5,756.4665958881378,None,1,0.5332729816436768,756.4665958881378,None,757.1275200843811,None,758.1224679946899,758.4680240154266,758.1224679946899,758.4680240154266,757.1275200843811,None,757.1275200843811,None,757.1275200843811,None,900,800,0,True,681.2753677368164,973.9055633544922,right,760.6632010936737,None,pp_16,icub,clamp,2021_Dec_23_1523,exp,2021.2.3,59.876287482423145,
left,go,1,0,1,0,8,4,52,1,761.1636950969696,None,1,0.8404080867767334,761.1636950969696,None,762.1368689537048,None,763.1408739089966,763.4747519493103,763.1408739089966,763.4747519493103,762.1368689537048,None,762.1368689537048,None,762.1368689537048,None,-1,-1,1,True,462.5685214996338,1619.6227073669434,left,766.1186509132385,None,pp_16,icub,clamp,2021_Dec_23_1523,exp,2021.2.3,59.876287482423145,
left,go,1,0,1,0,8,5,53,1,766.6408140659332,None,1,0.31705307960510254,766.6408140659332,None,767.0578999519348,None,768.0583710670471,768.4143419265747,768.0583710670471,768.4143419265747,767.0578999519348,None,767.0578999519348,None,767.0578999519348,None,-1,-1,1,True,575.4094123840332,1742.006778717041,left,771.2496988773346,None,pp_16,icub,clamp,2021_Dec_23_1523,exp,2021.2.3,59.876287482423145,
left,stop,1,0,1,0,9,0,54,2,771.7619979381561,None,1,0.5607149600982666,771.7619979381561,None,772.4271399974823,None,773.4303030967712,773.7834298610687,773.4303030967712,773.7834298610687,772.4271399974823,None,772.4271399974823,None,772.4271399974823,None,900,750,1,True,662.4364852905273,-1.0,-1,777.9761049747467,None,pp_16,icub,clamp,2021_Dec_23_1523,exp,2021.2.3,59.876287482423145,
right,go,1,0,1,0,9,1,55,3,778.5065019130707,None,1,0.7509570121765137,778.5065019130707,None,779.3645820617676,None,780.3720219135284,780.7232100963593,780.3720219135284,780.7232100963593,779.3645820617676,None,779.3645820617676,None,779.3645820617676,None,-1,-1,0,False,1035.66312789917,-1.0,-1,785.2966818809509,None,pp_16,icub,clamp,2021_Dec_23_1523,exp,2021.2.3,59.876287482423145,
right,go,1,0,1,0,9,2,56,3,785.7862038612366,None,1,2.2914910316467285,785.7862038612366,None,788.1836850643158,None,789.1877830028534,789.5390269756317,789.1877830028534,789.5390269756317,788.1836850643158,None,788.1836850643158,None,788.1836850643158,None,-1,-1,1,True,1158.3011150360107,829.0355205535889,right,792.0582928657532,None,pp_16,icub,clamp,2021_Dec_23_1523,exp,2021.2.3,59.876287482423145,
left,go,1,0,1,0,9,3,57,0,792.5698330402374,None,1,0.39110302925109863,792.5698330402374,None,793.0518369674683,None,794.0856149196625,794.4108278751373,794.0856149196625,794.4108278751373,793.0518369674683,None,793.0518369674683,None,793.0518369674683,None,-1,-1,1,True,508.08191299438477,572.0968246459961,left,796.0280780792236,None,pp_16,icub,clamp,2021_Dec_23_1523,exp,2021.2.3,59.876287482423145,
right,stop,1,0,1,0,9,4,58,5,796.5623180866241,None,1,0.2636837959289551,796.5623180866241,None,796.9165990352631,None,797.9259538650513,798.2810668945312,797.9259538650513,798.2810668945312,796.9165990352631,None,796.9165990352631,None,796.9165990352631,None,950,750,0,True,819.4894790649414,646.7068195343018,right,800.2773580551147,None,pp_16,icub,clamp,2021_Dec_23_1523,exp,2021.2.3,59.876287482423145,
left,go,1,0,1,0,9,5,59,0,800.7726559638977,None,1,1.2280659675598145,800.7726559638977,None,802.1166429519653,None,803.1244659423828,803.4741280078888,803.1244659423828,803.4741280078888,802.1166429519653,None,802.1166429519653,None,802.1166429519653,None,-1,-1,1,True,274.66464042663574,503.2467842102051,left,804.8063549995422,None,pp_16,icub,clamp,2021_Dec_23_1523,exp,2021.2.3,59.876287482423145,
left,go,1,0,1,0,10,0,60,0,805.322135925293,None,1,0.5255670547485352,805.322135925293,None,805.9282710552216,None,806.9495570659637,807.2889349460602,806.9495570659637,807.2889349460602,805.9282710552216,None,805.9282710552216,None,805.9282710552216,None,-1,-1,1,True,335.56532859802246,756.3583850860596,left,808.8934240341187,None,pp_16,icub,clamp,2021_Dec_23_1523,exp,2021.2.3,59.876287482423145,
right,stop,1,0,1,0,10,1,61,5,809.4134900569916,None,1,0.3162710666656494,809.4134900569916,None,809.8297119140625,None,810.8295319080353,811.1719369888306,810.8295319080353,811.1719369888306,809.8297119140625,None,809.8297119140625,None,809.8297119140625,None,950,700,0,True,324.39112663269043,538.1717681884766,right,812.5708549022675,None,pp_16,icub,clamp,2021_Dec_23_1523,exp,2021.2.3,59.876287482423145,
left,go,1,0,1,0,10,2,62,0,813.0731160640717,None,1,1.0938940048217773,813.0731160640717,None,814.2951240539551,None,815.3167140483856,815.6710669994354,815.3167140483856,815.6710669994354,814.2951240539551,None,814.2951240539551,None,814.2951240539551,None,-1,-1,1,True,456.7885398864746,913.2471084594727,left,817.5781979560852,None,pp_16,icub,clamp,2021_Dec_23_1523,exp,2021.2.3,59.876287482423145,
right,go,1,0,1,0,10,3,63,4,818.0964169502258,None,1,0.4923241138458252,818.0964169502258,None,818.6889719963074,None,819.7074089050293,820.0606989860535,819.7074089050293,820.0606989860535,818.6889719963074,None,818.6889719963074,None,818.6889719963074,None,-1,-1,1,True,383.12315940856934,784.2135429382324,right,821.7534749507904,None,pp_16,icub,clamp,2021_Dec_23_1523,exp,2021.2.3,59.876287482423145,
left,stop,1,0,1,0,10,4,64,2,822.2740108966827,None,1,0.45069003105163574,822.2740108966827,None,822.8153040409088,None,823.8342690467834,824.1978330612183,823.8342690467834,824.1978330612183,822.8153040409088,None,822.8153040409088,None,822.8153040409088,None,,,0,False,-1.0,-1.0,-1,824.6834859848022,None,pp_16,icub,clamp,2021_Dec_23_1523,exp,2021.2.3,59.876287482423145,
left,go,1,0,1,0,10,5,65,1,825.2107989788055,None,1,1.3924570083618164,825.2107989788055,None,826.6872820854187,None,827.6721050739288,828.0290260314941,827.6721050739288,828.0290260314941,826.6872820854187,None,826.6872820854187,None,826.6872820854187,None,-1,-1,1,True,655.0590991973877,805.5918216705322,left,830.0463190078735,None,pp_16,icub,clamp,2021_Dec_23_1523,exp,2021.2.3,59.876287482423145,
left,go,1,0,1,0,11,0,66,1,830.5650298595428,None,1,0.578873872756958,830.5650298595428,None,831.2344188690186,None,832.2537128925323,832.5972929000854,832.2537128925323,832.5972929000854,831.2344188690186,None,831.2344188690186,None,831.2344188690186,None,-1,-1,1,True,402.2970199584961,774.9111652374268,left,834.2850520610809,None,pp_16,icub,clamp,2021_Dec_23_1523,exp,2021.2.3,59.876287482423145,
left,stop,1,0,1,0,11,1,67,2,834.793979883194,None,1,0.39753293991088867,834.793979883194,None,835.276575088501,None,836.2754549980164,836.63933801651,836.2754549980164,836.63933801651,835.276575088501,None,835.276575088501,None,835.276575088501,None,950,650,0,True,320.71781158447266,726.2423038482666,left,838.2200970649719,None,pp_16,icub,clamp,2021_Dec_23_1523,exp,2021.2.3,59.876287482423145,
left,stop,1,0,1,0,11,2,68,2,838.7351610660553,None,1,1.1307799816131592,838.7351610660553,None,839.9561140537262,None,840.9610590934753,841.3241770267487,840.9610590934753,841.3241770267487,839.9561140537262,None,839.9561140537262,None,839.9561140537262,None,900,650,1,True,825.6218433380127,-1.0,-1,845.689267873764,None,pp_16,icub,clamp,2021_Dec_23_1523,exp,2021.2.3,59.876287482423145,
right,stop,1,0,1,0,11,3,69,5,846.1820800304413,None,1,0.4951028823852539,846.1820800304413,None,846.7943389415741,None,847.7772569656372,848.1078028678894,847.7772569656372,848.1078028678894,846.7943389415741,None,846.7943389415741,None,846.7943389415741,None,950,650,0,True,954.9140930175781,857.2332859039307,right,850.4798200130463,None,pp_16,icub,clamp,2021_Dec_23_1523,exp,2021.2.3,59.876287482423145,
right,go,1,0,1,0,11,4,70,3,850.9924309253693,None,1,1.1960411071777344,850.9924309253693,None,852.2794740200043,None,853.2892000675201,853.6447319984436,853.2892000675201,853.6447319984436,852.2794740200043,None,852.2794740200043,None,852.2794740200043,None,-1,-1,1,True,809.175968170166,1851.7794609069824,right,856.8351318836212,None,pp_16,icub,clamp,2021_Dec_23_1523,exp,2021.2.3,59.876287482423145,
right,go,1,0,1,0,11,5,71,4,857.3654539585114,None,1,0.7199409008026123,857.3654539585114,None,858.2135570049286,None,859.248566865921,859.6047639846802,859.248566865921,859.6047639846802,858.2135570049286,None,858.2135570049286,None,858.2135570049286,None,-1,-1,1,True,494.2278861999512,1691.486120223999,right,862.2949090003967,None,pp_16,icub,clamp,2021_Dec_23_1523,exp,2021.2.3,59.876287482423145,
right,go,1,0,1,0,12,0,72,3,862.8031129837036,None,1,0.8904612064361572,862.8031129837036,None,863.7790648937225,None,864.7947008609772,865.1455678939819,864.7947008609772,865.1455678939819,863.7790648937225,None,863.7790648937225,None,863.7790648937225,None,-1,-1,1,True,558.4046840667725,1314.4936561584473,right,867.5294330120087,None,pp_16,icub,clamp,2021_Dec_23_1523,exp,2021.2.3,59.876287482423145,
right,go,1,0,1,0,12,1,73,4,868.0553328990936,None,1,0.6472568511962891,868.0553328990936,None,868.7828979492188,None,869.7785279750824,870.1399879455566,869.7785279750824,870.1399879455566,868.7828979492188,None,868.7828979492188,None,868.7828979492188,None,-1,-1,1,True,479.89439964294434,878.9610862731934,right,872.0229620933533,None,pp_16,icub,clamp,2021_Dec_23_1523,exp,2021.2.3,59.876287482423145,
right,go,1,0,1,0,12,2,74,4,872.5379250049591,None,1,0.5456399917602539,872.5379250049591,None,873.2049579620361,None,874.2007479667664,874.5506999492645,874.2007479667664,874.5506999492645,873.2049579620361,None,873.2049579620361,None,873.2049579620361,None,-1,-1,1,True,347.92065620422363,1174.7562885284424,right,876.5933408737183,None,pp_16,icub,clamp,2021_Dec_23_1523,exp,2021.2.3,59.876287482423145,
left,go,1,0,1,0,12,3,75,1,877.1155660152435,None,1,0.41207408905029297,877.1155660152435,None,877.6567380428314,None,878.6873638629913,879.0102319717407,878.6873638629913,879.0102319717407,877.6567380428314,None,877.6567380428314,None,877.6567380428314,None,-1,-1,1,True,663.1364822387695,1370.1107501983643,left,881.5948779582977,None,pp_16,icub,clamp,2021_Dec_23_1523,exp,2021.2.3,59.876287482423145,
right,go,1,0,1,0,12,4,76,4,882.1111068725586,None,1,0.528656005859375,882.1111068725586,None,882.7730350494385,None,883.7760119438171,884.1001958847046,883.7760119438171,884.1001958847046,882.7730350494385,None,882.7730350494385,None,882.7730350494385,None,-1,-1,1,True,800.5452156066895,1339.1976356506348,right,886.812383890152,None,pp_16,icub,clamp,2021_Dec_23_1523,exp,2021.2.3,59.876287482423145,
right,go,1,0,1,0,12,5,77,4,887.3125340938568,None,1,0.521744966506958,887.3125340938568,None,887.9148230552673,None,888.94455909729,889.2961339950562,888.94455909729,889.2961339950562,887.9148230552673,None,887.9148230552673,None,887.9148230552673,None,-1,-1,1,True,828.3214569091797,833.5731029510498,right,891.4869210720062,None,pp_16,icub,clamp,2021_Dec_23_1523,exp,2021.2.3,59.876287482423145,
left,go,2,0,2,0,0,0,0,0,901.8990519046783,None,1,3.433445930480957,901.8990519046783,None,905.4614679813385,None,906.4807660579681,906.8277509212494,906.4807660579681,906.8277509212494,905.4614679813385,None,905.4614679813385,None,905.4614679813385,None,-1,-1,1,True,796.682596206665,1009.9949836730957,left,909.1671009063721,None,pp_16,icub,clamp,2021_Dec_23_1523,exp,2021.2.3,59.876287482423145,
right,go,2,0,2,0,0,1,1,4,909.6893539428711,None,1,0.5817539691925049,909.6893539428711,None,910.3562459945679,None,911.3671300411224,911.6931819915771,911.3671300411224,911.6931819915771,910.3562459945679,None,910.3562459945679,None,910.3562459945679,None,-1,-1,1,True,420.3813076019287,773.66042137146,right,913.4566140174866,None,pp_16,icub,clamp,2021_Dec_23_1523,exp,2021.2.3,59.876287482423145,
right,stop,2,0,2,0,0,2,2,5,913.9885630607605,None,1,0.27088189125061035,913.9885630607605,None,914.3398730754852,None,915.3713550567627,915.718190908432,915.3713550567627,915.718190908432,914.3398730754852,None,914.3398730754852,None,914.3398730754852,None,950,600,1,True,492.0034408569336,-1.0,-1,919.7400479316711,None,pp_16,icub,clamp,2021_Dec_23_1523,exp,2021.2.3,59.876287482423145,
right,go,2,0,2,0,0,3,3,3,920.2715890407562,None,1,0.8704121112823486,920.2715890407562,None,921.254065990448,None,922.2396049499512,922.5960569381714,922.2396049499512,922.5960569381714,921.254065990448,None,921.254065990448,None,921.254065990448,None,-1,-1,1,True,328.0348777770996,890.6364440917969,right,924.3454339504242,None,pp_16,icub,clamp,2021_Dec_23_1523,exp,2021.2.3,59.876287482423145,
right,go,2,0,2,0,0,4,4,3,924.8457849025726,None,1,0.6586368083953857,924.8457849025726,None,925.6332190036774,None,926.6296210289001,926.954607963562,926.6296210289001,926.954607963562,925.6332190036774,None,925.6332190036774,None,925.6332190036774,None,-1,-1,1,True,761.174201965332,921.701192855835,right,929.1954278945923,None,pp_16,icub,clamp,2021_Dec_23_1523,exp,2021.2.3,59.876287482423145,
left,go,2,0,2,0,0,5,5,0,929.7054259777069,None,1,0.56308913230896,929.7054259777069,None,930.3685600757599,None,931.3803510665894,931.7381539344788,931.3803510665894,931.7381539344788,930.3685600757599,None,930.3685600757599,None,930.3685600757599,None,-1,-1,1,True,728.3368110656738,761.8615627288818,left,933.760155916214,None,pp_16,icub,clamp,2021_Dec_23_1523,exp,2021.2.3,59.876287482423145,
left,go,2,0,2,0,1,0,6,1,934.2586810588837,None,1,0.6059160232543945,934.2586810588837,None,934.9826629161835,None,935.9806649684906,936.3307988643646,935.9806649684906,936.3307988643646,934.9826629161835,None,934.9826629161835,None,934.9826629161835,None,-1,-1,1,True,796.205997467041,901.7782211303711,left,938.5453150272369,None,pp_16,icub,clamp,2021_Dec_23_1523,exp,2021.2.3,59.876287482423145,
left,go,2,0,2,0,1,1,7,0,939.0654649734497,None,1,0.7150850296020508,939.0654649734497,None,939.9139750003815,None,940.9323470592499,941.278501033783,940.9323470592499,941.278501033783,939.9139750003815,None,939.9139750003815,None,939.9139750003815,None,-1,-1,1,True,510.1661682128906,1102.158784866333,left,943.4193599224091,None,pp_16,icub,clamp,2021_Dec_23_1523,exp,2021.2.3,59.876287482423145,
right,go,2,0,2,0,1,2,8,3,943.9327418804169,None,1,0.46656298637390137,943.9327418804169,None,944.5327439308167,None,945.5280230045319,945.8810579776764,945.5280230045319,945.8810579776764,944.5327439308167,None,944.5327439308167,None,944.5327439308167,None,-1,-1,1,True,509.85169410705566,1086.4698886871338,right,948.006758928299,None,pp_16,icub,clamp,2021_Dec_23_1523,exp,2021.2.3,59.876287482423145,
left,go,2,0,2,0,1,3,9,1,948.5217468738556,None,1,0.39655399322509766,948.5217468738556,None,949.0035829544067,None,950.0366299152374,950.3973319530487,950.0366299152374,950.3973319530487,949.0035829544067,None,949.0035829544067,None,949.0035829544067,None,-1,-1,1,True,497.1327781677246,951.2374401092529,left,952.3310289382935,None,pp_16,icub,clamp,2021_Dec_23_1523,exp,2021.2.3,59.876287482423145,
right,go,2,0,2,0,1,4,10,3,952.8484599590302,None,1,0.4444868564605713,952.8484599590302,None,953.37850689888,None,954.3907999992371,954.7447469234467,954.3907999992371,954.7447469234467,953.37850689888,None,953.37850689888,None,953.37850689888,None,-1,-1,1,True,584.9013328552246,818.0325031280518,right,956.6735260486603,None,pp_16,icub,clamp,2021_Dec_23_1523,exp,2021.2.3,59.876287482423145,
left,stop,2,0,2,0,1,5,11,2,957.196130990982,None,1,0.2949869632720947,957.196130990982,None,957.6115570068359,None,958.614119052887,958.9705209732056,958.614119052887,958.9705209732056,957.6115570068359,None,957.6115570068359,None,957.6115570068359,None,950,650,0,True,137.9566192626953,838.1614685058594,left,960.4795010089874,None,pp_16,icub,clamp,2021_Dec_23_1523,exp,2021.2.3,59.876287482423145,
right,go,2,0,2,0,2,0,12,4,961.0052530765533,None,1,1.0442390441894531,961.0052530765533,None,962.1640520095825,None,963.1789450645447,963.5303308963776,963.1789450645447,963.5303308963776,962.1640520095825,None,962.1640520095825,None,962.1640520095825,None,-1,-1,1,True,456.1328887939453,797.4398136138916,right,965.3180460929871,None,pp_16,icub,clamp,2021_Dec_23_1523,exp,2021.2.3,59.876287482423145,
left,go,2,0,2,0,2,1,13,1,965.8171629905701,None,1,0.37403392791748047,965.8171629905701,None,966.2969949245453,None,967.3303790092468,967.6879260540009,967.3303790092468,967.6879260540009,966.2969949245453,None,966.2969949245453,None,966.2969949245453,None,-1,-1,1,True,492.52891540527344,919.1079139709473,left,969.6089630126953,None,pp_16,icub,clamp,2021_Dec_23_1523,exp,2021.2.3,59.876287482423145,
right,stop,2,0,2,0,2,2,14,5,970.1139869689941,None,1,0.5253391265869141,970.1139869689941,None,970.7199609279633,None,971.7235989570618,972.0752110481262,971.7235989570618,972.0752110481262,970.7199609279633,None,970.7199609279633,None,970.7199609279633,None,900,650,1,True,581.6388130187988,-1.0,-1,976.1719009876251,None,pp_16,icub,clamp,2021_Dec_23_1523,exp,2021.2.3,59.876287482423145,
right,go,2,0,2,0,2,3,15,3,976.7024569511414,None,1,0.3983597755432129,976.7024569511414,None,977.1901569366455,None,978.1752488613129,978.5394170284271,978.1752488613129,978.5394170284271,977.1901569366455,None,977.1901569366455,None,977.1901569366455,None,-1,-1,1,True,549.7593879699707,908.5042476654053,right,980.5209739208221,None,pp_16,icub,clamp,2021_Dec_23_1523,exp,2021.2.3,59.876287482423145,
left,stop,2,0,2,0,2,4,16,2,981.0397629737854,None,1,0.37785983085632324,981.0397629737854,None,981.5233910083771,None,982.5260598659515,982.8865568637848,982.5260598659515,982.8865568637848,981.5233910083771,None,981.5233910083771,None,981.5233910083771,None,900,700,1,True,941.129207611084,-1.0,-1,987.3653399944305,None,pp_16,icub,clamp,2021_Dec_23_1523,exp,2021.2.3,59.876287482423145,
right,go,2,0,2,0,2,5,17,3,987.8969929218292,None,1,0.6538379192352295,987.8969929218292,None,988.6312389373779,None,989.6111869812012,989.9694559574127,989.6111869812012,989.9694559574127,988.6312389373779,None,988.6312389373779,None,988.6312389373779,None,-1,-1,1,True,1062.6106262207031,1270.6925868988037,right,992.83793592453,None,pp_16,icub,clamp,2021_Dec_23_1523,exp,2021.2.3,59.876287482423145,
right,go,2,0,2,0,3,0,18,3,993.355171918869,None,1,0.37427210807800293,993.355171918869,None,993.8345558643341,None,994.823184967041,995.182343006134,994.823184967041,995.182343006134,993.8345558643341,None,993.8345558643341,None,993.8345558643341,None,-1,-1,1,True,1147.2785472869873,1209.0728282928467,right,998.0730700492859,None,pp_16,icub,clamp,2021_Dec_23_1523,exp,2021.2.3,59.876287482423145,
left,go,2,0,2,0,3,1,19,0,998.5934569835663,None,1,0.5576951503753662,998.5934569835663,None,999.257138967514,None,1000.2842419147491,1000.6430208683014,1000.2842419147491,1000.6430208683014,999.257138967514,None,999.257138967514,None,999.257138967514,None,-1,-1,1,True,1101.6111373901367,1190.9418106079102,left,1003.4241349697113,None,pp_16,icub,clamp,2021_Dec_23_1523,exp,2021.2.3,59.876287482423145,
left,stop,2,0,2,0,3,2,20,2,1003.9423809051514,None,1,0.5361588001251221,1003.9423809051514,None,1004.6063899993896,None,1005.6087379455566,1005.9563798904419,1005.6087379455566,1005.9563798904419,1004.6063899993896,None,1004.6063899993896,None,1004.6063899993896,None,950,700,0,True,786.4997386932373,634.6957683563232,left,1007.9348618984222,None,pp_16,icub,clamp,2021_Dec_23_1523,exp,2021.2.3,59.876287482423145,
left,stop,2,0,2,0,3,3,21,2,1008.4433510303497,None,1,1.1821081638336182,1008.4433510303497,None,1009.7256360054016,None,1010.728432893753,1011.0886890888214,1010.728432893753,1011.0886890888214,1009.7256360054016,None,1009.7256360054016,None,1009.7256360054016,None,900,700,0,True,393.6176300048828,925.9796142578125,left,1012.9369900226593,None,pp_16,icub,clamp,2021_Dec_23_1523,exp,2021.2.3,59.876287482423145,
left,stop,2,0,2,0,3,4,22,2,1013.4395799636841,None,1,0.7304120063781738,1013.4395799636841,None,1014.2896709442139,None,1015.3098139762878,1015.6367859840393,1015.3098139762878,1015.6367859840393,1014.2896709442139,None,1014.2896709442139,None,1014.2896709442139,None,850,700,1,True,533.1301689147949,-1.0,-1,1019.7294929027557,None,pp_16,icub,clamp,2021_Dec_23_1523,exp,2021.2.3,59.876287482423145,
left,go,2,0,2,0,3,5,23,0,1020.2237498760223,None,1,0.9588849544525146,1020.2237498760223,None,1021.2692110538483,None,1022.253858089447,1022.6087729930878,1022.253858089447,1022.6087729930878,1021.2692110538483,None,1021.2692110538483,None,1021.2692110538483,None,-1,-1,1,True,364.1355037689209,1071.594476699829,left,1024.5771498680115,None,pp_16,icub,clamp,2021_Dec_23_1523,exp,2021.2.3,59.876287482423145,
right,go,2,0,2,0,4,0,24,3,1025.0969450473785,None,1,0.37905001640319824,1025.0969450473785,None,1025.5768539905548,None,1026.597393989563,1026.9520058631897,1026.597393989563,1026.9520058631897,1025.5768539905548,None,1025.5768539905548,None,1025.5768539905548,None,-1,-1,1,True,94.87223625183105,771.2240219116211,right,1028.348524093628,None,pp_16,icub,clamp,2021_Dec_23_1523,exp,2021.2.3,59.876287482423145,
left,go,2,0,2,0,4,1,25,1,1028.862293958664,None,1,0.38789892196655273,1028.862293958664,None,1029.3458070755005,None,1030.3372530937195,1030.6827220916748,1030.3372530937195,1030.6827220916748,1029.3458070755005,None,1029.3458070755005,None,1029.3458070755005,None,-1,-1,1,True,441.17259979248047,803.7309646606445,left,1032.4586780071259,None,pp_16,icub,clamp,2021_Dec_23_1523,exp,2021.2.3,59.876287482423145,
left,stop,2,0,2,0,4,2,26,2,1032.9741840362549,None,1,0.5003499984741211,1032.9741840362549,None,1033.5807809829712,None,1034.5951619148254,1034.944216966629,1034.5951619148254,1034.944216966629,1033.5807809829712,None,1033.5807809829712,None,1033.5807809829712,None,900,700,1,True,471.76289558410645,-1.0,-1,1038.9413690567017,None,pp_16,icub,clamp,2021_Dec_23_1523,exp,2021.2.3,59.876287482423145,
right,go,2,0,2,0,4,3,27,3,1039.4728860855103,None,1,0.5037820339202881,1039.4728860855103,None,1040.0845029354095,None,1041.0665509700775,1041.4268260002136,1041.0665509700775,1041.4268260002136,1040.0845029354095,None,1040.0845029354095,None,1040.0845029354095,None,-1,-1,1,True,760.4498863220215,919.3778038024902,right,1043.6390659809113,None,pp_16,icub,clamp,2021_Dec_23_1523,exp,2021.2.3,59.876287482423145,
right,go,2,0,2,0,4,4,28,4,1044.1571788787842,None,1,0.6559300422668457,1044.1571788787842,None,1044.9460248947144,None,1045.9392778873444,1046.2986800670624,1045.9392778873444,1046.2986800670624,1044.9460248947144,None,1044.9460248947144,None,1044.9460248947144,None,-1,-1,1,True,723.1044769287109,1090.3065204620361,right,1048.6455750465393,None,pp_16,icub,clamp,2021_Dec_23_1523,exp,2021.2.3,59.876287482423145,
left,go,2,0,2,0,4,5,29,1,1049.1636209487915,None,1,0.43945789337158203,1049.1636209487915,None,1049.7090809345245,None,1050.7365400791168,1051.0772988796234,1050.7365400791168,1051.0772988796234,1049.7090809345245,None,1049.7090809345245,None,1049.7090809345245,None,-1,-1,1,True,970.548152923584,825.5164623260498,left,1053.4027109146118,None,pp_16,icub,clamp,2021_Dec_23_1523,exp,2021.2.3,59.876287482423145,
right,go,2,0,2,0,5,0,30,3,1053.9098060131073,None,1,0.7231671810150146,1053.9098060131073,None,1054.7555809020996,None,1055.753212928772,1056.100261926651,1055.753212928772,1056.100261926651,1054.7555809020996,None,1054.7555809020996,None,1054.7555809020996,None,-1,-1,1,True,442.72422790527344,1139.7066116333008,right,1058.2285990715027,None,pp_16,icub,clamp,2021_Dec_23_1523,exp,2021.2.3,59.876287482423145,
left,go,2,0,2,0,5,1,31,0,1058.7480900287628,None,1,0.2749919891357422,1058.7480900287628,None,1059.1034848690033,None,1060.1336979866028,1060.483519077301,1060.1336979866028,1060.483519077301,1059.1034848690033,None,1059.1034848690033,None,1059.1034848690033,None,-1,-1,1,True,511.7650032043457,743.1290149688721,left,1062.2273299694061,None,pp_16,icub,clamp,2021_Dec_23_1523,exp,2021.2.3,59.876287482423145,
right,go,2,0,2,0,5,2,32,4,1062.7460010051727,None,1,0.5141239166259766,1062.7460010051727,None,1063.3476419448853,None,1064.3823308944702,1064.7257080078125,1064.3823308944702,1064.7257080078125,1063.3476419448853,None,1063.3476419448853,None,1063.3476419448853,None,-1,-1,1,True,465.43407440185547,801.4330863952637,right,1066.5176339149475,None,pp_16,icub,clamp,2021_Dec_23_1523,exp,2021.2.3,59.876287482423145,
left,stop,2,0,2,0,5,3,33,2,1067.026715040207,None,1,0.6861450672149658,1067.026715040207,None,1067.818736076355,None,1068.8366348743439,1069.1979789733887,1068.8366348743439,1069.1979789733887,1067.818736076355,None,1067.818736076355,None,1067.818736076355,None,950,700,1,True,753.0405521392822,-1.0,-1,1073.4778609275818,None,pp_16,icub,clamp,2021_Dec_23_1523,exp,2021.2.3,59.876287482423145,
left,go,2,0,2,0,5,4,34,1,1074.0099630355835,None,1,1.2085721492767334,1074.0099630355835,None,1075.3023400306702,None,1076.2768399715424,1076.6315240859985,1076.2768399715424,1076.6315240859985,1075.3023400306702,None,1075.3023400306702,None,1075.3023400306702,None,-1,-1,1,True,481.1100959777832,957.8959941864014,left,1078.636836051941,None,pp_16,icub,clamp,2021_Dec_23_1523,exp,2021.2.3,59.876287482423145,
right,go,2,0,2,0,5,5,35,4,1079.165778875351,None,1,0.33519601821899414,1079.165778875351,None,1079.5863780975342,None,1080.5844700336456,1080.9454400539398,1080.5844700336456,1080.9454400539398,1079.5863780975342,None,1079.5863780975342,None,1079.5863780975342,None,-1,-1,1,True,365.27371406555176,605.2570343017578,right,1082.437507867813,None,pp_16,icub,clamp,2021_Dec_23_1523,exp,2021.2.3,59.876287482423145,
right,go,2,0,2,0,6,0,36,4,1082.956633090973,None,1,0.3421900272369385,1082.956633090973,None,1083.3792469501495,None,1084.4127669334412,1084.767450094223,1084.4127669334412,1084.767450094223,1083.3792469501495,None,1083.3792469501495,None,1083.3792469501495,None,-1,-1,1,True,450.1526355743408,634.5579624176025,right,1086.3666679859161,None,pp_16,icub,clamp,2021_Dec_23_1523,exp,2021.2.3,59.876287482423145,
left,stop,2,0,2,0,6,1,37,2,1086.8836770057678,None,1,0.2903711795806885,1086.8836770057678,None,1087.294595003128,None,1088.3005619049072,1088.6556649208069,1088.3005619049072,1088.6556649208069,1087.294595003128,None,1087.294595003128,None,1087.294595003128,None,1000,700,0,True,703.5963535308838,635.5235576629639,left,1090.530946969986,None,pp_16,icub,clamp,2021_Dec_23_1523,exp,2021.2.3,59.876287482423145,
left,go,2,0,2,0,6,2,38,0,1091.040778875351,None,1,1.2295680046081543,1091.040778875351,None,1092.384027004242,None,1093.3784840106964,1093.7258710861206,1093.3784840106964,1093.7258710861206,1092.384027004242,None,1092.384027004242,None,1092.384027004242,None,-1,-1,1,True,482.189416885376,740.0994300842285,left,1095.5230379104614,None,pp_16,icub,clamp,2021_Dec_23_1523,exp,2021.2.3,59.876287482423145,
left,go,2,0,2,0,6,3,39,1,1096.0408589839935,None,1,0.6819000244140625,1096.0408589839935,None,1096.8284499645233,None,1097.8609409332275,1098.2187309265137,1097.8609409332275,1098.2187309265137,1096.8284499645233,None,1096.8284499645233,None,1096.8284499645233,None,-1,-1,1,True,417.94681549072266,697.5100040435791,left,1099.8254170417786,None,pp_16,icub,clamp,2021_Dec_23_1523,exp,2021.2.3,59.876287482423145,
right,go,2,0,2,0,6,4,40,4,1100.3594489097595,None,1,0.5954799652099609,1100.3594489097595,None,1101.0826420783997,None,1102.1105120182037,1102.4646530151367,1102.1105120182037,1102.4646530151367,1101.0826420783997,None,1101.0826420783997,None,1101.0826420783997,None,-1,-1,1,True,538.9351844787598,620.5089092254639,right,1104.1154389381409,None,pp_16,icub,clamp,2021_Dec_23_1523,exp,2021.2.3,59.876287482423145,
left,go,2,0,2,0,6,5,41,0,1104.649924993515,None,1,0.4170079231262207,1104.649924993515,None,1105.1905980110168,None,1106.19611287117,1106.5497329235077,1106.19611287117,1106.5497329235077,1105.1905980110168,None,1105.1905980110168,None,1105.1905980110168,None,-1,-1,1,True,615.919828414917,654.0398597717285,left,1108.3470520973206,None,pp_16,icub,clamp,2021_Dec_23_1523,exp,2021.2.3,59.876287482423145,
right,stop,2,0,2,0,7,0,42,5,1108.884132862091,None,1,0.4247770309448242,1108.884132862091,None,1109.4268798828125,None,1110.433711051941,1110.7795600891113,1110.433711051941,1110.7795600891113,1109.4268798828125,None,1109.4268798828125,None,1109.4268798828125,None,950,700,0,True,452.81076431274414,649.1169929504395,right,1112.4003779888153,None,pp_16,icub,clamp,2021_Dec_23_1523,exp,2021.2.3,59.876287482423145,
left,go,2,0,2,0,7,1,43,1,1112.9162590503693,None,1,0.9588580131530762,1112.9162590503693,None,1113.9556078910828,None,1114.9840700626373,1115.3090889453888,1114.9840700626373,1115.3090889453888,1113.9556078910828,None,1113.9556078910828,None,1113.9556078910828,None,-1,-1,1,True,158.7057113647461,580.4886817932129,left,1116.5940260887146,None,pp_16,icub,clamp,2021_Dec_23_1523,exp,2021.2.3,59.876287482423145,
right,stop,2,0,2,0,7,2,44,5,1117.1067860126495,None,1,0.4283328056335449,1117.1067860126495,None,1117.6505570411682,None,1118.6666300296783,1119.0326368808746,1118.6666300296783,1119.0326368808746,1117.6505570411682,None,1117.6505570411682,None,1117.6505570411682,None,950,650,0,True,398.8628387451172,626.7642974853516,right,1120.5934329032898,None,pp_16,icub,clamp,2021_Dec_23_1523,exp,2021.2.3,59.876287482423145,
right,stop,2,0,2,0,7,3,45,5,1121.115014076233,None,1,0.8273530006408691,1121.115014076233,None,1122.0277650356293,None,1123.0626089572906,1123.421513080597,1123.0626089572906,1123.421513080597,1122.0277650356293,None,1122.0277650356293,None,1122.0277650356293,None,950,600,1,True,252.51483917236328,-1.0,-1,1127.1881740093231,None,pp_16,icub,clamp,2021_Dec_23_1523,exp,2021.2.3,59.876287482423145,
right,go,2,0,2,0,7,4,46,4,1127.6811780929565,None,1,1.3452250957489014,1127.6811780929565,None,1129.1588110923767,None,1130.1273019313812,1130.4740860462189,1130.1273019313812,1130.4740860462189,1129.1588110923767,None,1129.1588110923767,None,1129.1588110923767,None,-1,-1,1,True,416.19133949279785,561.9096755981445,right,1132.0136759281158,None,pp_16,icub,clamp,2021_Dec_23_1523,exp,2021.2.3,59.876287482423145,
right,stop,2,0,2,0,7,5,47,5,1132.5303490161896,None,1,0.39438796043395996,1132.5303490161896,None,1133.0103628635406,None,1134.0330560207367,1134.3852200508118,1134.0330560207367,1134.3852200508118,1133.0103628635406,None,1133.0103628635406,None,1133.0103628635406,None,950,650,0,True,348.6144542694092,578.4287452697754,right,1135.8486139774323,None,pp_16,icub,clamp,2021_Dec_23_1523,exp,2021.2.3,59.876287482423145,
left,go,2,0,2,0,8,0,48,1,1136.3484978675842,None,1,0.9734170436859131,1136.3484978675842,None,1137.4452760219574,None,1138.4492490291595,1138.7811110019684,1138.4492490291595,1138.7811110019684,1137.4452760219574,None,1137.4452760219574,None,1137.4452760219574,None,-1,-1,1,True,70.57762145996094,586.6067409515381,left,1140.010554075241,None,pp_16,icub,clamp,2021_Dec_23_1523,exp,2021.2.3,59.876287482423145,
right,stop,2,0,2,0,8,1,49,5,1140.529706954956,None,1,0.5938808917999268,1140.529706954956,None,1141.1990370750427,None,1142.204964876175,1142.5641798973083,1142.204964876175,1142.5641798973083,1141.1990370750427,None,1141.1990370750427,None,1141.1990370750427,None,950,600,0,True,355.30853271484375,657.8247547149658,right,1144.1144740581512,None,pp_16,icub,clamp,2021_Dec_23_1523,exp,2021.2.3,59.876287482423145,
right,go,2,0,2,0,8,2,50,3,1144.6329989433289,None,1,0.7547299861907959,1144.6329989433289,None,1145.4834370613098,None,1146.482099056244,1146.8246898651123,1146.482099056244,1146.8246898651123,1145.4834370613098,None,1145.4834370613098,None,1145.4834370613098,None,-1,-1,1,True,538.8450622558594,946.868896484375,right,1148.8474428653717,None,pp_16,icub,clamp,2021_Dec_23_1523,exp,2021.2.3,59.876287482423145,
right,go,2,0,2,0,8,3,51,4,1149.3628969192505,None,1,0.3332381248474121,1149.3628969192505,None,1149.781800031662,None,1150.776468038559,1151.139508008957,1150.776468038559,1151.139508008957,1149.781800031662,None,1149.781800031662,None,1149.781800031662,None,-1,-1,1,True,284.4860553741455,922.6996898651123,right,1152.8703899383545,None,pp_16,icub,clamp,2021_Dec_23_1523,exp,2021.2.3,59.876287482423145,
right,go,2,0,2,0,8,4,52,4,1153.3737490177155,None,1,0.5650451183319092,1153.3737490177155,None,1154.0394790172577,None,1155.060385942459,1155.4105598926544,1155.060385942459,1155.4105598926544,1154.0394790172577,None,1154.0394790172577,None,1154.0394790172577,None,-1,-1,1,True,568.0029392242432,647.0541954040527,right,1157.1495060920715,None,pp_16,icub,clamp,2021_Dec_23_1523,exp,2021.2.3,59.876287482423145,
left,go,2,0,2,0,8,5,53,1,1157.667799949646,None,1,0.667820930480957,1157.667799949646,None,1158.4542920589447,None,1159.4468109607697,1159.8053328990936,1159.4468109607697,1159.8053328990936,1158.4542920589447,None,1158.4542920589447,None,1158.4542920589447,None,-1,-1,1,True,490.5836582183838,785.8171463012695,left,1161.614170074463,None,pp_16,icub,clamp,2021_Dec_23_1523,exp,2021.2.3,59.876287482423145,
right,go,2,0,2,0,9,0,54,4,1162.1303129196167,None,1,0.5942258834838867,1162.1303129196167,None,1162.8003878593445,None,1163.8005919456482,1164.1595690250397,1163.8005919456482,1164.1595690250397,1162.8003878593445,None,1162.8003878593445,None,1162.8003878593445,None,-1,-1,1,True,510.326623916626,679.5444488525391,right,1165.881597995758,None,pp_16,icub,clamp,2021_Dec_23_1523,exp,2021.2.3,59.876287482423145,
left,go,2,0,2,0,9,1,55,0,1166.4014739990234,None,1,0.7952959537506104,1166.4014739990234,None,1167.3160400390625,None,1168.3100519180298,1168.6629359722137,1168.3100519180298,1168.6629359722137,1167.3160400390625,None,1167.3160400390625,None,1167.3160400390625,None,-1,-1,1,True,393.3393955230713,735.7230186462402,left,1170.3174059391022,None,pp_16,icub,clamp,2021_Dec_23_1523,exp,2021.2.3,59.876287482423145,
left,stop,2,0,2,0,9,2,56,2,1170.851625919342,None,1,0.4779789447784424,1170.851625919342,None,1171.452203989029,None,1172.4829959869385,1172.84574508667,1172.4829959869385,1172.84574508667,1171.452203989029,None,1171.452203989029,None,1171.452203989029,None,950,550,0,True,559.307336807251,708.1077098846436,left,1174.6003420352936,None,pp_16,icub,clamp,2021_Dec_23_1523,exp,2021.2.3,59.876287482423145,
left,stop,2,0,2,0,9,3,57,2,1175.1134440898895,None,1,0.9180560111999512,1175.1134440898895,None,1176.151598930359,None,1177.150918006897,1177.4991199970245,1177.150918006897,1177.4991199970245,1176.151598930359,None,1176.151598930359,None,1176.151598930359,None,900,550,0,True,566.0603046417236,1025.2070426940918,left,1179.6492788791656,None,pp_16,icub,clamp,2021_Dec_23_1523,exp,2021.2.3,59.876287482423145,
left,go,2,0,2,0,9,4,58,0,1180.166298866272,None,1,1.038456916809082,1180.166298866272,None,1181.3294670581818,None,1182.350229024887,1182.709035873413,1182.350229024887,1182.709035873413,1181.3294670581818,None,1181.3294670581818,None,1181.3294670581818,None,-1,-1,1,True,361.30762100219727,1668.8930988311768,left,1185.268579006195,None,pp_16,icub,clamp,2021_Dec_23_1523,exp,2021.2.3,59.876287482423145,
right,stop,2,0,2,0,9,5,59,5,1185.7851729393005,None,1,0.5177161693572998,1185.7851729393005,None,1186.393564939499,None,1187.4036588668823,1187.762235879898,1187.4036588668823,1187.762235879898,1186.393564939499,None,1186.393564939499,None,1186.393564939499,None,850,550,0,True,765.4263973236084,691.4536952972412,right,1189.750804901123,None,pp_16,icub,clamp,2021_Dec_23_1523,exp,2021.2.3,59.876287482423145,
right,stop,2,0,2,0,10,0,60,5,1190.2705490589142,None,1,0.9950239658355713,1190.2705490589142,None,1191.3717188835144,None,1192.3828620910645,1192.748454093933,1192.3828620910645,1192.748454093933,1191.3717188835144,None,1191.3717188835144,None,1191.3717188835144,None,850,500,1,True,300.25291442871094,-1.0,-1,1196.5875670909882,None,pp_16,icub,clamp,2021_Dec_23_1523,exp,2021.2.3,59.876287482423145,
right,go,2,0,2,0,10,1,61,3,1197.080617904663,None,1,0.9065489768981934,1197.080617904663,None,1198.1251680850983,None,1199.1046450138092,1199.4588570594788,1199.1046450138092,1199.4588570594788,1198.1251680850983,None,1198.1251680850983,None,1198.1251680850983,None,-1,-1,1,True,650.4507064819336,732.8400611877441,right,1201.4103150367737,None,pp_16,icub,clamp,2021_Dec_23_1523,exp,2021.2.3,59.876287482423145,
left,go,2,0,2,0,10,2,62,1,1201.9241869449615,None,1,0.6095268726348877,1201.9241869449615,None,1202.6541090011597,None,1203.6697099208832,1204.0294408798218,1203.6697099208832,1204.0294408798218,1202.6541090011597,None,1202.6541090011597,None,1202.6541090011597,None,-1,-1,1,True,669.3930625915527,843.1751728057861,left,1206.073380947113,None,pp_16,icub,clamp,2021_Dec_23_1523,exp,2021.2.3,59.876287482423145,
left,stop,2,0,2,0,10,3,63,2,1206.5769629478455,None,1,0.6626040935516357,1206.5769629478455,None,1207.3639080524445,None,1208.379024028778,1208.729796886444,1208.379024028778,1208.729796886444,1207.3639080524445,None,1207.3639080524445,None,1207.3639080524445,None,850,550,0,True,535.8622074127197,786.360502243042,left,1210.5842490196228,None,pp_16,icub,clamp,2021_Dec_23_1523,exp,2021.2.3,59.876287482423145,
right,stop,2,0,2,0,10,4,64,5,1211.0859079360962,None,1,0.8220500946044922,1211.0859079360962,None,1211.9986019134521,None,1212.9911670684814,1213.3374240398407,1212.9911670684814,1213.3374240398407,1211.9986019134521,None,1211.9986019134521,None,1211.9986019134521,None,800,550,1,True,504.3501853942871,-1.0,-1,1217.4130690097809,None,pp_16,icub,clamp,2021_Dec_23_1523,exp,2021.2.3,59.876287482423145,
left,go,2,0,2,0,10,5,65,0,1217.9063720703125,None,1,0.49176692962646484,1217.9063720703125,None,1218.517842054367,None,1219.4855239391327,1219.8495919704437,1219.4855239391327,1219.8495919704437,1218.517842054367,None,1218.517842054367,None,1218.517842054367,None,-1,-1,1,True,288.6159420013428,939.749002456665,left,1221.6491160392761,None,pp_16,icub,clamp,2021_Dec_23_1523,exp,2021.2.3,59.876287482423145,
right,stop,2,0,2,0,11,0,66,5,1222.1589379310608,None,1,0.49357080459594727,1222.1589379310608,None,1222.7621309757233,None,1223.781634092331,1224.1458129882812,1223.781634092331,1224.1458129882812,1222.7621309757233,None,1222.7621309757233,None,1222.7621309757233,None,800,600,1,True,387.7692222595215,-1.0,-1,1228.0500230789185,None,pp_16,icub,clamp,2021_Dec_23_1523,exp,2021.2.3,59.876287482423145,
right,go,2,0,2,0,11,1,67,4,1228.5809218883514,None,1,0.676163911819458,1228.5809218883514,None,1229.3785688877106,None,1230.377517938614,1230.746337890625,1230.377517938614,1230.746337890625,1229.3785688877106,None,1229.3785688877106,None,1229.3785688877106,None,-1,-1,1,True,754.5387744903564,1065.6108856201172,right,1233.0972640514374,None,pp_16,icub,clamp,2021_Dec_23_1523,exp,2021.2.3,59.876287482423145,
left,go,2,0,2,0,11,2,68,0,1233.6086239814758,None,1,0.6038579940795898,1233.6086239814758,None,1234.3356330394745,None,1235.3416528701782,1235.7034409046173,1235.3416528701782,1235.7034409046173,1234.3356330394745,None,1234.3356330394745,None,1234.3356330394745,None,-1,-1,1,True,602.1344661712646,1471.0068702697754,left,1238.2963008880615,None,pp_16,icub,clamp,2021_Dec_23_1523,exp,2021.2.3,59.876287482423145,
right,stop,2,0,2,0,11,3,69,5,1238.8277139663696,None,1,0.7859628200531006,1238.8277139663696,None,1239.7369949817657,None,1240.7415618896484,1241.0991849899292,1240.7415618896484,1241.0991849899292,1239.7369949817657,None,1239.7369949817657,None,1239.7369949817657,None,800,650,1,True,139.3122673034668,-1.0,-1,1244.7609219551086,None,pp_16,icub,clamp,2021_Dec_23_1523,exp,2021.2.3,59.876287482423145,
right,stop,2,0,2,0,11,4,70,5,1245.2936570644379,None,1,1.1966331005096436,1245.2936570644379,None,1246.5866420269012,None,1247.5861909389496,1247.9340538978577,1247.5861909389496,1247.9340538978577,1246.5866420269012,None,1246.5866420269012,None,1246.5866420269012,None,800,700,1,True,893.0230140686035,-1.0,-1,1252.353453874588,None,pp_16,icub,clamp,2021_Dec_23_1523,exp,2021.2.3,59.876287482423145,
left,stop,2,0,2,0,11,5,71,2,1252.8864350318909,None,1,3.338589906692505,1252.8864350318909,None,1256.3447139263153,None,1257.329120874405,1257.6828339099884,1257.329120874405,1257.6828339099884,1256.3447139263153,None,1256.3447139263153,None,1256.3447139263153,None,800,750,1,True,1653.7504196166992,-1.0,-1,1262.9040260314941,None,pp_16,icub,clamp,2021_Dec_23_1523,exp,2021.2.3,59.876287482423145,
right,go,2,0,2,0,12,0,72,3,1263.4359290599823,None,1,0.9670181274414062,1263.4359290599823,None,1264.5431020259857,None,1265.5211019515991,1265.870892047882,1265.5211019515991,1265.870892047882,1264.5431020259857,None,1264.5431020259857,None,1264.5431020259857,None,-1,-1,1,True,212.36920356750488,1160.6972217559814,right,1267.7919719219208,None,pp_16,icub,clamp,2021_Dec_23_1523,exp,2021.2.3,59.876287482423145,
left,stop,2,0,2,0,12,1,73,2,1268.30539894104,None,1,0.6379830837249756,1268.30539894104,None,1269.0339770317078,None,1270.0615570545197,1270.4254620075226,1270.0615570545197,1270.4254620075226,1269.0339770317078,None,1269.0339770317078,None,1269.0339770317078,None,850,750,0,True,210.86955070495605,772.8900909423828,left,1271.9011199474335,None,pp_16,icub,clamp,2021_Dec_23_1523,exp,2021.2.3,59.876287482423145,
right,go,2,0,2,0,12,2,74,4,1272.4073729515076,None,1,1.3337690830230713,1272.4073729515076,None,1273.8611409664154,None,1274.874722957611,1275.2250199317932,1274.874722957611,1275.2250199317932,1273.8611409664154,None,1273.8611409664154,None,1273.8611409664154,None,-1,-1,1,True,980.7682037353516,1482.6281070709229,right,1278.2141580581665,None,pp_16,icub,clamp,2021_Dec_23_1523,exp,2021.2.3,59.876287482423145,
left,go,2,0,2,0,12,3,75,1,1278.731409072876,None,1,0.444080114364624,1278.731409072876,None,1279.2756469249725,None,1280.3074009418488,1280.6628558635712,1280.3074009418488,1280.6628558635712,1279.2756469249725,None,1279.2756469249725,None,1279.2756469249725,None,-1,-1,1,True,333.56595039367676,476.8667221069336,left,1281.9631550312042,None,pp_16,icub,clamp,2021_Dec_23_1523,exp,2021.2.3,59.876287482423145,
left,go,2,0,2,0,12,4,76,1,1282.486568927765,None,1,0.37789201736450195,1282.486568927765,None,1282.9704639911652,None,1283.97483086586,1284.3101620674133,1283.97483086586,1284.3101620674133,1282.9704639911652,None,1282.9704639911652,None,1282.9704639911652,None,-1,-1,1,True,313.89880180358887,647.885799407959,left,1285.8040308952332,None,pp_16,icub,clamp,2021_Dec_23_1523,exp,2021.2.3,59.876287482423145,
left,go,2,0,2,0,12,5,77,0,1286.3097529411316,None,1,0.3386878967285156,1286.3097529411316,None,1286.7290449142456,None,1287.7600049972534,1288.0989198684692,1287.7600049972534,1288.0989198684692,1286.7290449142456,None,1286.7290449142456,None,1286.7290449142456,None,-1,-1,1,True,277.3287296295166,690.0858879089355,left,1289.5985100269318,None,pp_16,icub,clamp,2021_Dec_23_1523,exp,2021.2.3,59.876287482423145,
right,stop,3,0,3,0,0,0,0,5,1300.4037790298462,None,1,9.392688035964966,1300.4037790298462,None,1309.889240026474,None,1310.8902189731598,1311.2353248596191,1310.8902189731598,1311.2353248596191,1309.889240026474,None,1309.889240026474,None,1309.889240026474,None,800,750,0,True,361.0670566558838,739.2110824584961,right,1312.8967719078064,None,pp_16,icub,clamp,2021_Dec_23_1523,exp,2021.2.3,59.876287482423145,
left,stop,3,0,3,0,0,1,1,2,1313.4165499210358,None,1,1.0718600749969482,1313.4165499210358,None,1314.5789930820465,None,1315.5892989635468,1315.942869901657,1315.5892989635468,1315.942869901657,1314.5789930820465,None,1314.5789930820465,None,1314.5789930820465,None,800,700,1,True,370.1937198638916,-1.0,-1,1319.8427019119263,None,pp_16,icub,clamp,2021_Dec_23_1523,exp,2021.2.3,59.876287482423145,
right,go,3,0,3,0,0,2,2,3,1320.336198091507,None,1,0.8146040439605713,1320.336198091507,None,1321.2571249008179,None,1322.2573690414429,1322.6087119579315,1322.2573690414429,1322.6087119579315,1321.2571249008179,None,1321.2571249008179,None,1321.2571249008179,None,-1,-1,1,True,708.2066535949707,1352.9176712036133,right,1325.2207288742065,None,pp_16,icub,clamp,2021_Dec_23_1523,exp,2021.2.3,59.876287482423145,
right,stop,3,0,3,0,0,3,3,5,1325.7289838790894,None,1,0.3956489562988281,1325.7289838790894,None,1326.2100660800934,None,1327.207920074463,1327.5770599842072,1327.207920074463,1327.5770599842072,1326.2100660800934,None,1326.2100660800934,None,1326.2100660800934,None,850,700,1,True,835.0062370300293,-1.0,-1,1331.9425899982452,None,pp_16,icub,clamp,2021_Dec_23_1523,exp,2021.2.3,59.876287482423145,
left,stop,3,0,3,0,0,4,4,2,1332.4746549129486,None,1,0.5851190090179443,1332.4746549129486,None,1333.1474170684814,None,1334.1248478889465,1334.475182056427,1334.1248478889465,1334.475182056427,1333.1474170684814,None,1333.1474170684814,None,1333.1474170684814,None,850,750,1,True,493.70813369750977,-1.0,-1,1338.5059249401093,None,pp_16,icub,clamp,2021_Dec_23_1523,exp,2021.2.3,59.876287482423145,
right,stop,3,0,3,0,0,5,5,5,1339.0374519824982,None,1,0.7523930072784424,1339.0374519824982,None,1339.8980069160461,None,1340.8851289749146,1341.2427189350128,1340.8851289749146,1341.2427189350128,1339.8980069160461,None,1339.8980069160461,None,1339.8980069160461,None,900,750,1,True,559.4420433044434,-1.0,-1,1345.332247018814,None,pp_16,icub,clamp,2021_Dec_23_1523,exp,2021.2.3,59.876287482423145,
right,go,3,0,3,0,1,0,6,3,1345.8630828857422,None,1,0.7426469326019287,1345.8630828857422,None,1346.724091053009,None,1347.7102329730988,1348.0470099449158,1347.7102329730988,1348.0470099449158,1346.724091053009,None,1346.724091053009,None,1346.724091053009,None,-1,-1,1,True,1195.5325603485107,1373.2314109802246,right,1351.1897230148315,None,pp_16,icub,clamp,2021_Dec_23_1523,exp,2021.2.3,59.876287482423145,
right,stop,3,0,3,0,1,1,7,5,1351.715075969696,None,1,0.49633097648620605,1351.715075969696,None,1352.3211040496826,None,1353.3549740314484,1353.709585905075,1353.3549740314484,1353.709585905075,1352.3211040496826,None,1352.3211040496826,None,1352.3211040496826,None,900,800,0,True,1355.9763431549072,748.0838298797607,right,1356.3021309375763,None,pp_16,icub,clamp,2021_Dec_23_1523,exp,2021.2.3,59.876287482423145,
left,go,3,0,3,0,1,2,8,0,1356.8011479377747,None,1,0.9553220272064209,1356.8011479377747,None,1357.8420000076294,None,1358.856309890747,1359.186143875122,1358.856309890747,1359.186143875122,1357.8420000076294,None,1357.8420000076294,None,1357.8420000076294,None,-1,-1,1,True,882.7033042907715,1529.7925472259521,left,1362.1313109397888,None,pp_16,icub,clamp,2021_Dec_23_1523,exp,2021.2.3,59.876287482423145,
left,stop,3,0,3,0,1,3,9,2,1362.649029970169,None,1,0.5095460414886475,1362.649029970169,None,1363.2585649490356,None,1364.2920699119568,1364.6373810768127,1364.2920699119568,1364.6373810768127,1363.2585649490356,None,1363.2585649490356,None,1363.2585649490356,None,900,750,0,True,707.3087692260742,1018.1431770324707,left,1366.8742549419403,None,pp_16,icub,clamp,2021_Dec_23_1523,exp,2021.2.3,59.876287482423145,
right,go,3,0,3,0,1,4,10,4,1367.4060099124908,None,1,0.9870829582214355,1367.4060099124908,None,1368.5045499801636,None,1369.5057060718536,1369.84938788414,1369.5057060718536,1369.84938788414,1368.5045499801636,None,1368.5045499801636,None,1368.5045499801636,None,-1,-1,1,True,731.8732738494873,1723.1967449188232,right,1372.86905503273,None,pp_16,icub,clamp,2021_Dec_23_1523,exp,2021.2.3,59.876287482423145,
right,go,3,0,3,0,1,5,11,4,1373.377909898758,None,1,0.43326616287231445,1373.377909898758,None,1373.9223880767822,None,1374.917906999588,1375.2661530971527,1374.917906999588,1375.2661530971527,1373.9223880767822,None,1373.9223880767822,None,1373.9223880767822,None,-1,-1,1,True,771.8453407287598,1442.763328552246,right,1378.0457649230957,None,pp_16,icub,clamp,2021_Dec_23_1523,exp,2021.2.3,59.876287482423145,
