Holder,Action,blocks.thisRepN,blocks.thisTrialN,blocks.thisN,blocks.thisIndex,trials.thisRepN,trials.thisTrialN,trials.thisN,trials.thisIndex,start_msg.started,start_msg.stopped,RespButton_start_trial.keys,RespButton_start_trial.rt,RespButton_start_trial.started,RespButton_start_trial.stopped,GREEN.started,GREEN.stopped,LEFT_RED.started,LEFT_RED.stopped,RIGHT_RED.started,RIGHT_RED.stopped,LEFT_CIRCLE.started,LEFT_CIRCLE.stopped,CENTER_CIRCLE.started,CENTER_CIRCLE.stopped,RIGHT_CIRCLE.started,RIGHT_CIRCLE.stopped,SOUND_DELAY_MS_LEFT,SOUND_DELAY_MS_RIGHT,CORRECT,VALIDITY,RELEASE_TIME,TOUCH_TIME,BOTTLE_RESPONSE_POSITION,text.started,text.stopped,pid,left_position,right_position,date,expName,psychopyVersion,frameRate,
right,go,0,0,0,0,0,0,0,4,79.64650106430054,None,1,10.934827089309692,79.64650106430054,None,90.67191505432129,None,91.67389392852783,92.02877306938171,91.67389392852783,92.02877306938171,90.67191505432129,None,90.67191505432129,None,90.67191505432129,None,-1,-1,1,True,327.43215560913086,451.84803009033203,right,93.34482097625732,None,pp_14,icub,clamp,2021_Dec_23_1310,exp,2021.2.3,59.96677332372562,
left,go,0,0,0,0,0,1,1,0,93.87206387519836,None,1,0.48685288429260254,93.87206387519836,None,94.47023606300354,None,95.49479007720947,95.83901786804199,95.49479007720947,95.83901786804199,94.47023606300354,None,94.47023606300354,None,94.47023606300354,None,-1,-1,1,True,261.655330657959,264.33300971984863,left,96.89580392837524,None,pp_14,icub,clamp,2021_Dec_23_1310,exp,2021.2.3,59.96677332372562,
left,go,0,0,0,0,0,2,2,1,97.41128301620483,None,1,0.596656084060669,97.41128301620483,None,98.13639807701111,None,99.17185997962952,99.52643704414368,99.17185997962952,99.52643704414368,98.13639807701111,None,98.13639807701111,None,98.13639807701111,None,-1,-1,1,True,316.9999122619629,415.2200222015381,left,100.74863004684448,None,pp_14,icub,clamp,2021_Dec_23_1310,exp,2021.2.3,59.96677332372562,
left,go,0,0,0,0,0,3,3,1,101.26700592041016,None,1,0.678056001663208,101.26700592041016,None,102.05482602119446,None,103.08294296264648,103.41576099395752,103.08294296264648,103.41576099395752,102.05482602119446,None,102.05482602119446,None,102.05482602119446,None,-1,-1,1,True,367.4275875091553,299.9124526977539,left,104.61395287513733,None,pp_14,icub,clamp,2021_Dec_23_1310,exp,2021.2.3,59.96677332372562,
right,go,0,0,0,0,0,4,4,3,105.12636590003967,None,1,0.48061394691467285,105.12636590003967,None,105.7304790019989,None,106.73380708694458,107.08695697784424,106.73380708694458,107.08695697784424,105.7304790019989,None,105.7304790019989,None,105.7304790019989,None,-1,-1,1,True,328.58777046203613,358.6595058441162,right,108.29755687713623,None,pp_14,icub,clamp,2021_Dec_23_1310,exp,2021.2.3,59.96677332372562,
left,go,0,0,0,0,0,5,5,1,108.79974293708801,None,1,0.6594278812408447,108.79974293708801,None,109.58769392967224,None,110.60417008399963,110.95916700363159,110.60417008399963,110.95916700363159,109.58769392967224,None,109.58769392967224,None,109.58769392967224,None,-1,-1,1,True,392.1217918395996,439.00299072265625,left,112.2970540523529,None,pp_14,icub,clamp,2021_Dec_23_1310,exp,2021.2.3,59.96677332372562,
right,go,0,0,0,0,1,0,6,4,112.80228590965271,None,1,0.4569728374481201,112.80228590965271,None,113.34472799301147,None,114.36165189743042,114.7128598690033,114.36165189743042,114.7128598690033,113.34472799301147,None,113.34472799301147,None,113.34472799301147,None,-1,-1,1,True,324.3229389190674,318.35389137268066,right,115.87574696540833,None,pp_14,icub,clamp,2021_Dec_23_1310,exp,2021.2.3,59.96677332372562,
left,stop,0,0,0,0,1,1,7,2,116.38028597831726,None,1,0.663862943649292,116.38028597831726,None,117.16723489761353,None,118.18110799789429,118.53462100028992,118.18110799789429,118.53462100028992,117.16723489761353,None,117.16723489761353,None,117.16723489761353,None,500,500,0,True,371.0141181945801,468.85180473327637,left,119.90862989425659,None,pp_14,icub,clamp,2021_Dec_23_1310,exp,2021.2.3,59.96677332372562,
right,stop,0,0,0,0,1,2,8,5,120.42481899261475,None,1,0.9573662281036377,120.42481899261475,None,121.46275591850281,None,122.46992802619934,122.83449196815491,122.46992802619934,122.83449196815491,121.46275591850281,None,121.46275591850281,None,121.46275591850281,None,450,500,0,True,590.4061794281006,299.1197109222412,right,124.25233507156372,None,pp_14,icub,clamp,2021_Dec_23_1310,exp,2021.2.3,59.96677332372562,
right,stop,0,0,0,0,1,3,9,5,124.77147197723389,None,1,0.9734330177307129,124.77147197723389,None,125.85733604431152,None,126.85528802871704,127.21442699432373,126.85528802871704,127.21442699432373,125.85733604431152,None,125.85733604431152,None,125.85733604431152,None,450,450,0,True,400.58302879333496,322.8914737701416,right,128.46710896492004,None,pp_14,icub,clamp,2021_Dec_23_1310,exp,2021.2.3,59.96677332372562,
right,go,0,0,0,0,1,4,10,3,129.0041298866272,None,1,2.1117870807647705,129.0041298866272,None,131.21418285369873,None,132.21834897994995,132.57896900177002,132.21834897994995,132.57896900177002,131.21418285369873,None,131.21418285369873,None,131.21418285369873,None,-1,-1,1,True,454.11229133605957,507.3075294494629,right,134.06892085075378,None,pp_14,icub,clamp,2021_Dec_23_1310,exp,2021.2.3,59.96677332372562,
left,stop,0,0,0,0,1,5,11,2,134.58826899528503,None,1,0.5718851089477539,134.58826899528503,None,135.25263690948486,None,136.2743580341339,136.63466000556946,136.2743580341339,136.63466000556946,135.25263690948486,None,135.25263690948486,None,135.25263690948486,None,450,400,0,True,483.68120193481445,465.02184867858887,left,138.07962608337402,None,pp_14,icub,clamp,2021_Dec_23_1310,exp,2021.2.3,59.96677332372562,
left,go,0,0,0,0,2,0,12,1,138.5839478969574,None,1,0.7033798694610596,138.5839478969574,None,139.37292194366455,None,140.36771297454834,140.73132705688477,140.36771297454834,140.73132705688477,139.37292194366455,None,139.37292194366455,None,139.37292194366455,None,-1,-1,1,True,516.7796611785889,394.3462371826172,left,142.17803287506104,None,pp_14,icub,clamp,2021_Dec_23_1310,exp,2021.2.3,59.96677332372562,
left,stop,0,0,0,0,2,1,13,2,142.6959309577942,None,1,0.6411850452423096,142.6959309577942,None,143.42288208007812,None,144.44574189186096,144.7901668548584,144.44574189186096,144.7901668548584,143.42288208007812,None,143.42288208007812,None,143.42288208007812,None,400,400,0,True,485.7964515686035,492.8901195526123,left,146.3047080039978,None,pp_14,icub,clamp,2021_Dec_23_1310,exp,2021.2.3,59.96677332372562,
left,go,0,0,0,0,2,2,14,1,146.81758785247803,None,1,0.8116490840911865,146.81758785247803,None,147.72923493385315,None,148.7327070236206,149.06021690368652,148.7327070236206,149.06021690368652,147.72923493385315,None,147.72923493385315,None,147.72923493385315,None,-1,-1,1,True,407.64904022216797,575.7026672363281,left,150.6116840839386,None,pp_14,icub,clamp,2021_Dec_23_1310,exp,2021.2.3,59.96677332372562,
right,go,0,0,0,0,2,3,15,4,151.14148902893066,None,1,0.4234449863433838,151.14148902893066,None,151.6796269416809,None,152.68739700317383,153.04468989372253,152.68739700317383,153.04468989372253,151.6796269416809,None,151.6796269416809,None,151.6796269416809,None,-1,-1,1,True,521.4951038360596,454.0364742279053,right,154.56525087356567,None,pp_14,icub,clamp,2021_Dec_23_1310,exp,2021.2.3,59.96677332372562,
left,go,0,0,0,0,2,4,16,1,155.06469106674194,None,1,0.4681510925292969,155.06469106674194,None,155.60850191116333,None,156.63304901123047,156.95499086380005,156.63304901123047,156.95499086380005,155.60850191116333,None,155.60850191116333,None,155.60850191116333,None,-1,-1,1,True,584.6428871154785,459.303617477417,left,158.5228660106659,None,pp_14,icub,clamp,2021_Dec_23_1310,exp,2021.2.3,59.96677332372562,
left,stop,0,0,0,0,2,5,17,2,159.04230189323425,None,1,0.3838949203491211,159.04230189323425,None,159.52672004699707,None,160.53431487083435,160.86148405075073,160.53431487083435,160.86148405075073,159.52672004699707,None,159.52672004699707,None,159.52672004699707,None,350,400,0,True,451.80320739746094,477.7097702026367,left,162.36828303337097,None,pp_14,icub,clamp,2021_Dec_23_1310,exp,2021.2.3,59.96677332372562,
left,go,0,0,0,0,3,0,18,0,162.89146208763123,None,1,0.7924089431762695,162.89146208763123,None,163.80379700660706,None,164.83698201179504,165.2012848854065,164.83698201179504,165.2012848854065,163.80379700660706,None,163.80379700660706,None,163.80379700660706,None,-1,-1,1,True,491.1980628967285,711.0021114349365,left,166.89541792869568,None,pp_14,icub,clamp,2021_Dec_23_1310,exp,2021.2.3,59.96677332372562,
left,go,0,0,0,0,3,1,19,0,167.4091920852661,None,1,0.4246811866760254,167.4091920852661,None,167.95357203483582,None,168.96929693222046,169.30261898040771,168.96929693222046,169.30261898040771,167.95357203483582,None,167.95357203483582,None,167.95357203483582,None,-1,-1,1,True,440.6590461730957,411.10682487487793,left,170.67629504203796,None,pp_14,icub,clamp,2021_Dec_23_1310,exp,2021.2.3,59.96677332372562,
right,stop,0,0,0,0,3,2,20,5,171.1813108921051,None,1,0.6468179225921631,171.1813108921051,None,171.90858101844788,None,172.93318390846252,173.27640104293823,172.93318390846252,173.27640104293823,171.90858101844788,None,171.90858101844788,None,171.90858101844788,None,300,400,0,True,388.46397399902344,306.5152168273926,right,174.49325394630432,None,pp_14,icub,clamp,2021_Dec_23_1310,exp,2021.2.3,59.96677332372562,
left,go,0,0,0,0,3,3,21,1,175.0043830871582,None,1,0.6428020000457764,175.0043830871582,None,175.73277187347412,None,176.72490406036377,177.07526898384094,176.72490406036377,177.07526898384094,175.73277187347412,None,175.73277187347412,None,175.73277187347412,None,-1,-1,1,True,528.3441543579102,380.96165657043457,left,178.550518989563,None,pp_14,icub,clamp,2021_Dec_23_1310,exp,2021.2.3,59.96677332372562,
left,go,0,0,0,0,3,4,22,0,179.06921696662903,None,1,0.41058897972106934,179.06921696662903,None,179.60413193702698,None,180.59856486320496,180.94086503982544,180.59856486320496,180.94086503982544,179.60413193702698,None,179.60413193702698,None,179.60413193702698,None,-1,-1,1,True,330.6417465209961,455.1577568054199,left,182.2873978614807,None,pp_14,icub,clamp,2021_Dec_23_1310,exp,2021.2.3,59.96677332372562,
left,stop,0,0,0,0,3,5,23,2,182.79206490516663,None,1,0.40073490142822266,182.79206490516663,None,183.27317094802856,None,184.2852189540863,184.64082598686218,184.2852189540863,184.64082598686218,183.27317094802856,None,183.27317094802856,None,183.27317094802856,None,300,350,1,True,557.8091144561768,-1.0,-1,188.72818398475647,None,pp_14,icub,clamp,2021_Dec_23_1310,exp,2021.2.3,59.96677332372562,
left,go,0,0,0,0,4,0,24,1,189.26097989082336,None,1,0.9322910308837891,189.26097989082336,None,190.30708003044128,None,191.28623700141907,191.61129307746887,191.28623700141907,191.61129307746887,190.30708003044128,None,190.30708003044128,None,190.30708003044128,None,-1,-1,1,True,462.36228942871094,593.4748649597168,left,193.2533540725708,None,pp_14,icub,clamp,2021_Dec_23_1310,exp,2021.2.3,59.96677332372562,
right,go,0,0,0,0,4,1,25,4,193.76908087730408,None,1,0.7198240756988525,193.76908087730408,None,194.61677289009094,None,195.6297709941864,195.99629998207092,195.6297709941864,195.99629998207092,194.61677289009094,None,194.61677289009094,None,194.61677289009094,None,-1,-1,1,True,311.4931583404541,508.0273151397705,right,197.34457087516785,None,pp_14,icub,clamp,2021_Dec_23_1310,exp,2021.2.3,59.96677332372562,
right,stop,0,0,0,0,4,2,26,5,197.86544489860535,None,1,0.5870199203491211,197.86544489860535,None,198.53303003311157,None,199.54878687858582,199.91640400886536,199.54878687858582,199.91640400886536,198.53303003311157,None,198.53303003311157,None,198.53303003311157,None,350,350,0,True,505.8755874633789,464.16449546813965,right,201.38331294059753,None,pp_14,icub,clamp,2021_Dec_23_1310,exp,2021.2.3,59.96677332372562,
right,go,0,0,0,0,4,3,27,3,201.9013659954071,None,1,3.414296865463257,201.9013659954071,None,205.41139388084412,None,206.40372896194458,206.76595401763916,206.40372896194458,206.76595401763916,205.41139388084412,None,205.41139388084412,None,205.41139388084412,None,-1,-1,1,True,386.68036460876465,607.6037883758545,right,208.28985404968262,None,pp_14,icub,clamp,2021_Dec_23_1310,exp,2021.2.3,59.96677332372562,
right,go,0,0,0,0,4,4,28,3,208.8067889213562,None,1,0.8757500648498535,208.8067889213562,None,209.7827980518341,None,210.8029489517212,211.17259693145752,210.8029489517212,211.17259693145752,209.7827980518341,None,209.7827980518341,None,209.7827980518341,None,-1,-1,1,True,470.5069065093994,503.53097915649414,right,212.6398630142212,None,pp_14,icub,clamp,2021_Dec_23_1310,exp,2021.2.3,59.96677332372562,
left,go,0,0,0,0,4,5,29,0,213.15750885009766,None,1,0.742933988571167,213.15750885009766,None,214.00846004486084,None,215.03446793556213,215.39403200149536,215.03446793556213,215.39403200149536,214.00846004486084,None,214.00846004486084,None,214.00846004486084,None,-1,-1,1,True,449.0776062011719,599.7157096862793,left,216.96499490737915,None,pp_14,icub,clamp,2021_Dec_23_1310,exp,2021.2.3,59.96677332372562,
left,stop,0,0,0,0,5,0,30,2,217.49412894248962,None,1,0.46533918380737305,217.49412894248962,None,218.03778886795044,None,219.04196691513062,219.39314103126526,219.04196691513062,219.39314103126526,218.03778886795044,None,218.03778886795044,None,218.03778886795044,None,350,300,1,True,399.0325927734375,-1.0,-1,223.3467710018158,None,pp_14,icub,clamp,2021_Dec_23_1310,exp,2021.2.3,59.96677332372562,
left,stop,0,0,0,0,5,1,31,2,223.8770740032196,None,1,1.0557928085327148,223.8770740032196,None,225.04491186141968,None,226.02292704582214,226.37599086761475,226.02292704582214,226.37599086761475,225.04491186141968,None,225.04491186141968,None,225.04491186141968,None,400,300,1,True,438.06910514831543,-1.0,-1,230.38002395629883,None,pp_14,icub,clamp,2021_Dec_23_1310,exp,2021.2.3,59.96677332372562,
right,stop,0,0,0,0,5,2,32,5,230.9102759361267,None,1,0.08768296241760254,230.9102759361267,None,231.09009885787964,None,232.0809829235077,232.42289805412292,232.0809829235077,232.42289805412292,231.09009885787964,None,231.09009885787964,None,231.09009885787964,None,450,300,1,True,395.53117752075195,-1.0,-1,236.36170387268066,None,pp_14,icub,clamp,2021_Dec_23_1310,exp,2021.2.3,59.96677332372562,
right,go,0,0,0,0,5,3,33,3,236.89262104034424,None,1,0.6202690601348877,236.89262104034424,None,237.6272370815277,None,238.6093089580536,238.93370699882507,238.6093089580536,238.93370699882507,237.6272370815277,None,237.6272370815277,None,237.6272370815277,None,-1,-1,1,True,382.9467296600342,510.3180408477783,right,240.39293694496155,None,pp_14,icub,clamp,2021_Dec_23_1310,exp,2021.2.3,59.96677332372562,
left,go,0,0,0,0,5,4,34,0,240.92601203918457,None,1,0.5951900482177734,240.92601203918457,None,241.64932203292847,None,242.65656089782715,243.0177059173584,242.65656089782715,243.0177059173584,241.64932203292847,None,241.64932203292847,None,241.64932203292847,None,-1,-1,1,True,444.69213485717773,531.6665172576904,left,244.5022418498993,None,pp_14,icub,clamp,2021_Dec_23_1310,exp,2021.2.3,59.96677332372562,
left,go,0,0,0,0,5,5,35,1,245.02046704292297,None,1,0.5436139106750488,245.02046704292297,None,245.6837339401245,None,246.6907079219818,247.0483899116516,246.6907079219818,247.0483899116516,245.6837339401245,None,245.6837339401245,None,245.6837339401245,None,-1,-1,1,True,404.5367240905762,430.023193359375,left,248.40143299102783,None,pp_14,icub,clamp,2021_Dec_23_1310,exp,2021.2.3,59.96677332372562,
right,go,0,0,0,0,6,0,36,4,248.906583070755,None,1,0.6836159229278564,248.906583070755,None,249.69633507728577,None,250.72235798835754,251.09052801132202,250.72235798835754,251.09052801132202,249.69633507728577,None,249.69633507728577,None,249.69633507728577,None,-1,-1,1,True,367.57922172546387,433.2289695739746,right,252.40040397644043,None,pp_14,icub,clamp,2021_Dec_23_1310,exp,2021.2.3,59.96677332372562,
left,go,0,0,0,0,6,1,37,0,252.93189406394958,None,1,0.4942500591278076,252.93189406394958,None,253.5328290462494,None,254.5510790348053,254.8759789466858,254.5510790348053,254.8759789466858,253.5328290462494,None,253.5328290462494,None,253.5328290462494,None,-1,-1,1,True,507.8423023223877,516.2010192871094,left,256.42886996269226,None,pp_14,icub,clamp,2021_Dec_23_1310,exp,2021.2.3,59.96677332372562,
left,stop,0,0,0,0,6,2,38,2,256.9376609325409,None,1,0.6112148761749268,256.9376609325409,None,257.66304993629456,None,258.6619679927826,258.99290585517883,258.6619679927826,258.99290585517883,257.66304993629456,None,257.66304993629456,None,257.66304993629456,None,450,350,0,True,629.5654773712158,424.6389865875244,left,260.6192560195923,None,pp_14,icub,clamp,2021_Dec_23_1310,exp,2021.2.3,59.96677332372562,
right,go,0,0,0,0,6,3,39,4,261.13978600502014,None,1,0.6181998252868652,261.13978600502014,None,261.8663899898529,None,262.89323902130127,263.2404189109802,262.89323902130127,263.2404189109802,261.8663899898529,None,261.8663899898529,None,261.8663899898529,None,-1,-1,1,True,460.0241184234619,343.7685966491699,right,264.5769798755646,None,pp_14,icub,clamp,2021_Dec_23_1310,exp,2021.2.3,59.96677332372562,
left,go,0,0,0,0,6,4,40,1,265.09798192977905,None,1,0.3741319179534912,265.09798192977905,None,265.5787670612335,None,266.5797219276428,266.9388620853424,266.5797219276428,266.9388620853424,265.5787670612335,None,265.5787670612335,None,265.5787670612335,None,-1,-1,1,True,386.25073432922363,375.3824234008789,left,268.22660303115845,None,pp_14,icub,clamp,2021_Dec_23_1310,exp,2021.2.3,59.96677332372562,
left,go,0,0,0,0,6,5,41,0,268.72463297843933,None,1,0.29436802864074707,268.72463297843933,None,269.13690400123596,None,270.14940094947815,270.5084340572357,270.14940094947815,270.5084340572357,269.13690400123596,None,269.13690400123596,None,269.13690400123596,None,-1,-1,1,True,384.7663402557373,452.9833793640137,left,271.8635358810425,None,pp_14,icub,clamp,2021_Dec_23_1310,exp,2021.2.3,59.96677332372562,
left,stop,0,0,0,0,7,0,42,2,272.3942310810089,None,1,0.2887699604034424,272.3942310810089,None,272.8103520870209,None,273.8234360218048,274.1781039237976,273.8234360218048,274.1781039237976,272.8103520870209,None,272.8103520870209,None,272.8103520870209,None,400,350,0,True,358.59179496765137,456.6195011138916,left,275.5244610309601,None,pp_14,icub,clamp,2021_Dec_23_1310,exp,2021.2.3,59.96677332372562,
right,stop,0,0,0,0,7,1,43,5,276.0448348522186,None,1,0.7273209095001221,276.0448348522186,None,276.8924889564514,None,277.9023208618164,278.2609488964081,277.9023208618164,278.2609488964081,276.8924889564514,None,276.8924889564514,None,276.8924889564514,None,350,350,0,True,467.3464298248291,358.55984687805176,right,279.60451793670654,None,pp_14,icub,clamp,2021_Dec_23_1310,exp,2021.2.3,59.96677332372562,
right,go,0,0,0,0,7,2,44,3,280.1228029727936,None,1,0.36600494384765625,280.1228029727936,None,280.6045548915863,None,281.6342918872833,281.99752402305603,281.6342918872833,281.99752402305603,280.6045548915863,None,280.6045548915863,None,280.6045548915863,None,-1,-1,1,True,428.10535430908203,393.51820945739746,right,283.3072578907013,None,pp_14,icub,clamp,2021_Dec_23_1310,exp,2021.2.3,59.96677332372562,
right,go,0,0,0,0,7,3,45,4,283.8054599761963,None,1,0.33212804794311523,283.8054599761963,None,284.2232708930969,None,285.22448992729187,285.58778190612793,285.22448992729187,285.58778190612793,284.2232708930969,None,284.2232708930969,None,284.2232708930969,None,-1,-1,1,True,432.6438903808594,526.0798931121826,right,287.07147693634033,None,pp_14,icub,clamp,2021_Dec_23_1310,exp,2021.2.3,59.96677332372562,
right,stop,0,0,0,0,7,4,46,5,287.5815100669861,None,1,0.2345130443572998,287.5815100669861,None,287.93594908714294,None,288.9606809616089,289.30267906188965,288.9606809616089,289.30267906188965,287.93594908714294,None,287.93594908714294,None,287.93594908714294,None,350,300,0,True,420.99881172180176,380.4588317871094,right,290.62032890319824,None,pp_14,icub,clamp,2021_Dec_23_1310,exp,2021.2.3,59.96677332372562,
left,stop,0,0,0,0,7,5,47,2,291.1305139064789,None,1,0.429487943649292,291.1305139064789,None,291.67436385154724,None,292.7080068588257,293.06130194664,292.7080068588257,293.06130194664,291.67436385154724,None,291.67436385154724,None,291.67436385154724,None,350,250,0,True,305.8927059173584,567.7030086517334,left,294.45708990097046,None,pp_14,icub,clamp,2021_Dec_23_1310,exp,2021.2.3,59.96677332372562,
left,go,0,0,0,0,8,0,48,0,294.96973299980164,None,1,1.826941967010498,294.96973299980164,None,296.87241196632385,None,297.90492701530457,298.25543904304504,297.90492701530457,298.25543904304504,296.87241196632385,None,296.87241196632385,None,296.87241196632385,None,-1,-1,1,True,429.18920516967773,585.9484672546387,left,299.76123785972595,None,pp_14,icub,clamp,2021_Dec_23_1310,exp,2021.2.3,59.96677332372562,
right,stop,0,0,0,0,8,1,49,5,300.2752048969269,None,1,0.24331188201904297,300.2752048969269,None,300.6339838504791,None,301.63615798950195,301.9568519592285,301.63615798950195,301.9568519592285,300.6339838504791,None,300.6339838504791,None,300.6339838504791,None,300,250,1,True,371.793270111084,-1.0,-1,305.89285492897034,None,pp_14,icub,clamp,2021_Dec_23_1310,exp,2021.2.3,59.96677332372562,
right,go,0,0,0,0,8,2,50,4,306.4247660636902,None,1,2.074409008026123,306.4247660636902,None,308.5896270275116,None,309.56999492645264,309.9283640384674,309.56999492645264,309.9283640384674,308.5896270275116,None,308.5896270275116,None,308.5896270275116,None,-1,-1,1,True,344.10762786865234,523.2820510864258,right,311.3259449005127,None,pp_14,icub,clamp,2021_Dec_23_1310,exp,2021.2.3,59.96677332372562,
right,go,0,0,0,0,8,3,51,3,311.8638870716095,None,1,0.3137969970703125,311.8638870716095,None,312.2836449146271,None,313.27802205085754,313.608197927475,313.27802205085754,313.608197927475,312.2836449146271,None,312.2836449146271,None,312.2836449146271,None,-1,-1,1,True,390.9304141998291,511.63601875305176,right,315.06308102607727,None,pp_14,icub,clamp,2021_Dec_23_1310,exp,2021.2.3,59.96677332372562,
left,go,0,0,0,0,8,4,52,0,315.5908510684967,None,1,0.33426594734191895,315.5908510684967,None,316.010498046875,None,317.0360760688782,317.39689588546753,317.0360760688782,317.39689588546753,316.010498046875,None,316.010498046875,None,316.010498046875,None,-1,-1,1,True,434.80491638183594,479.7239303588867,left,318.8279550075531,None,pp_14,icub,clamp,2021_Dec_23_1310,exp,2021.2.3,59.96677332372562,
left,stop,0,0,0,0,8,5,53,2,319.33539605140686,None,1,2.370184898376465,319.33539605140686,None,321.7963750362396,None,322.81028008461,323.1539490222931,322.81028008461,323.1539490222931,321.7963750362396,None,321.7963750362396,None,321.7963750362396,None,300,300,1,True,322.0334053039551,-1.0,-1,326.9947519302368,None,pp_14,icub,clamp,2021_Dec_23_1310,exp,2021.2.3,59.96677332372562,
right,go,0,0,0,0,9,0,54,3,327.5258939266205,None,1,0.5910968780517578,327.5258939266205,None,328.19929099082947,None,329.18008494377136,329.52526593208313,329.18008494377136,329.52526593208313,328.19929099082947,None,328.19929099082947,None,328.19929099082947,None,-1,-1,1,True,354.22492027282715,423.2323169708252,right,330.8646800518036,None,pp_14,icub,clamp,2021_Dec_23_1310,exp,2021.2.3,59.96677332372562,
right,go,0,0,0,0,9,1,55,3,331.3827528953552,None,1,0.5775508880615234,331.3827528953552,None,332.07257103919983,None,333.0807650089264,333.43411803245544,333.0807650089264,333.43411803245544,332.07257103919983,None,332.07257103919983,None,332.07257103919983,None,-1,-1,1,True,552.0913600921631,374.8593330383301,right,334.89275193214417,None,pp_14,icub,clamp,2021_Dec_23_1310,exp,2021.2.3,59.96677332372562,
right,go,0,0,0,0,9,2,56,3,335.41272807121277,None,1,0.363631010055542,335.41272807121277,None,335.8899359703064,None,336.91722297668457,337.26668190956116,336.91722297668457,337.26668190956116,335.8899359703064,None,335.8899359703064,None,335.8899359703064,None,-1,-1,1,True,353.38616371154785,324.33509826660156,right,338.46078991889954,None,pp_14,icub,clamp,2021_Dec_23_1310,exp,2021.2.3,59.96677332372562,
right,stop,0,0,0,0,9,3,57,5,338.98100304603577,None,1,0.40044713020324707,338.98100304603577,None,339.46182894706726,None,340.4853620529175,340.83352494239807,340.4853620529175,340.83352494239807,339.46182894706726,None,339.46182894706726,None,339.46182894706726,None,350,300,0,True,336.1349105834961,235.68487167358398,right,341.93999695777893,None,pp_14,icub,clamp,2021_Dec_23_1310,exp,2021.2.3,59.96677332372562,
right,go,0,0,0,0,9,4,58,3,342.45005893707275,None,1,0.6092190742492676,342.45005893707275,None,343.1746828556061,None,344.2029550075531,344.55905389785767,344.2029550075531,344.55905389785767,343.1746828556061,None,343.1746828556061,None,343.1746828556061,None,-1,-1,1,True,374.098539352417,402.4701118469238,right,345.8633189201355,None,pp_14,icub,clamp,2021_Dec_23_1310,exp,2021.2.3,59.96677332372562,
right,go,0,0,0,0,9,5,59,4,346.3851549625397,None,1,0.8166079521179199,346.3851549625397,None,347.296345949173,None,348.30033802986145,348.6520240306854,348.30033802986145,348.6520240306854,347.296345949173,None,347.296345949173,None,347.296345949173,None,-1,-1,1,True,418.69235038757324,466.3374423980713,right,350.06668186187744,None,pp_14,icub,clamp,2021_Dec_23_1310,exp,2021.2.3,59.96677332372562,
right,stop,0,0,0,0,10,0,60,5,350.574581861496,None,1,0.48392295837402344,350.574581861496,None,351.1767120361328,None,352.19711995124817,352.5623869895935,352.19711995124817,352.5623869895935,351.1767120361328,None,351.1767120361328,None,351.1767120361328,None,350,250,1,True,356.3699722290039,-1.0,-1,356.40647196769714,None,pp_14,icub,clamp,2021_Dec_23_1310,exp,2021.2.3,59.96677332372562,
right,stop,0,0,0,0,10,1,61,5,356.93727588653564,None,1,1.1684467792510986,356.93727588653564,None,358.22857093811035,None,359.24087285995483,359.5975270271301,359.24087285995483,359.5975270271301,358.22857093811035,None,358.22857093811035,None,358.22857093811035,None,350,300,0,True,594.3470001220703,405.68017959594727,right,361.1249120235443,None,pp_14,icub,clamp,2021_Dec_23_1310,exp,2021.2.3,59.96677332372562,
right,go,0,0,0,0,10,2,62,4,361.66071796417236,None,1,0.7362668514251709,361.66071796417236,None,362.511666059494,None,363.53703808784485,363.8874590396881,363.53703808784485,363.8874590396881,362.511666059494,None,362.511666059494,None,362.511666059494,None,-1,-1,1,True,313.3103847503662,504.80103492736816,right,365.2331359386444,None,pp_14,icub,clamp,2021_Dec_23_1310,exp,2021.2.3,59.96677332372562,
left,stop,0,0,0,0,10,3,63,2,365.74268889427185,None,1,0.5787088871002197,365.74268889427185,None,366.41213393211365,None,367.40858793258667,367.7579128742218,367.40858793258667,367.7579128742218,366.41213393211365,None,366.41213393211365,None,366.41213393211365,None,350,250,1,True,295.0422763824463,-1.0,-1,371.57619190216064,None,pp_14,icub,clamp,2021_Dec_23_1310,exp,2021.2.3,59.96677332372562,
right,go,0,0,0,0,10,4,64,4,372.10675406455994,None,1,0.7650120258331299,372.10675406455994,None,372.96653389930725,None,373.9490978717804,374.27521085739136,373.9490978717804,374.27521085739136,372.96653389930725,None,372.96653389930725,None,372.96653389930725,None,-1,-1,1,True,301.2251853942871,460.0093364715576,right,375.60940504074097,None,pp_14,icub,clamp,2021_Dec_23_1310,exp,2021.2.3,59.96677332372562,
left,go,0,0,0,0,10,5,65,1,376.1127870082855,None,1,0.6212308406829834,376.1127870082855,None,376.841570854187,None,377.86014890670776,378.2148320674896,377.86014890670776,378.2148320674896,376.841570854187,None,376.841570854187,None,376.841570854187,None,-1,-1,1,True,307.5528144836426,548.729419708252,left,379.60248708724976,None,pp_14,icub,clamp,2021_Dec_23_1310,exp,2021.2.3,59.96677332372562,
right,stop,0,0,0,0,11,0,66,5,380.11674189567566,None,1,0.6021130084991455,380.11674189567566,None,380.84337306022644,None,381.85384798049927,382.2066490650177,381.85384798049927,382.2066490650177,380.84337306022644,None,380.84337306022644,None,380.84337306022644,None,400,250,0,True,259.0796947479248,377.8111934661865,right,383.37845396995544,None,pp_14,icub,clamp,2021_Dec_23_1310,exp,2021.2.3,59.96677332372562,
right,go,0,0,0,0,11,1,67,3,383.89420104026794,None,1,2.411651134490967,383.89420104026794,None,386.4138970375061,None,387.4224979877472,387.76596093177795,387.4224979877472,387.76596093177795,386.4138970375061,None,386.4138970375061,None,386.4138970375061,None,-1,-1,1,True,251.40142440795898,640.7496929168701,right,389.190269947052,None,pp_14,icub,clamp,2021_Dec_23_1310,exp,2021.2.3,59.96677332372562,
right,go,0,0,0,0,11,2,68,4,389.7206320762634,None,1,0.26784396171569824,389.7206320762634,None,390.07507586479187,None,391.08174991607666,391.42131304740906,391.08174991607666,391.42131304740906,390.07507586479187,None,390.07507586479187,None,390.07507586479187,None,-1,-1,1,True,303.17211151123047,252.33936309814453,right,392.5250358581543,None,pp_14,icub,clamp,2021_Dec_23_1310,exp,2021.2.3,59.96677332372562,
left,go,0,0,0,0,11,3,69,0,393.0387098789215,None,1,0.8011138439178467,393.0387098789215,None,393.9539489746094,None,394.95781087875366,395.3038990497589,394.95781087875366,395.3038990497589,393.9539489746094,None,393.9539489746094,None,393.9539489746094,None,-1,-1,1,True,340.5301570892334,513.6303901672363,left,396.68749499320984,None,pp_14,icub,clamp,2021_Dec_23_1310,exp,2021.2.3,59.96677332372562,
left,go,0,0,0,0,11,4,70,0,397.1925950050354,None,1,0.5164461135864258,397.1925950050354,None,397.7949068546295,None,398.8102478981018,399.1588189601898,398.8102478981018,399.1588189601898,397.7949068546295,None,397.7949068546295,None,397.7949068546295,None,-1,-1,1,True,398.6530303955078,474.5354652404785,left,400.56324100494385,None,pp_14,icub,clamp,2021_Dec_23_1310,exp,2021.2.3,59.96677332372562,
left,stop,0,0,0,0,11,5,71,2,401.07625794410706,None,1,0.49652814865112305,401.07625794410706,None,401.67929887771606,None,402.70858907699585,403.0609529018402,402.70858907699585,403.0609529018402,401.67929887771606,None,401.67929887771606,None,401.67929887771606,None,400,200,0,True,319.9586868286133,472.2592830657959,left,404.38737893104553,None,pp_14,icub,clamp,2021_Dec_23_1310,exp,2021.2.3,59.96677332372562,
left,go,0,0,0,0,12,0,72,1,404.900771856308,None,1,1.0297510623931885,404.900771856308,None,406.05866289138794,None,407.08627104759216,407.4463760852814,407.08627104759216,407.4463760852814,406.05866289138794,None,406.05866289138794,None,406.05866289138794,None,-1,-1,1,True,531.3026905059814,556.6833019256592,left,409.0269320011139,None,pp_14,icub,clamp,2021_Dec_23_1310,exp,2021.2.3,59.96677332372562,
right,stop,0,0,0,0,12,1,73,5,409.54514503479004,None,1,0.5613100528717041,409.54514503479004,None,410.20780897140503,None,411.21981501579285,411.56167697906494,411.21981501579285,411.56167697906494,410.20780897140503,None,410.20780897140503,None,410.20780897140503,None,350,200,1,True,87.0354175567627,-1.0,-1,415.19184589385986,None,pp_14,icub,clamp,2021_Dec_23_1310,exp,2021.2.3,59.96677332372562,
left,go,0,0,0,0,12,2,74,0,415.7223210334778,None,1,5.4549431800842285,415.7223210334778,None,421.2771818637848,None,422.2538299560547,422.60116600990295,422.2538299560547,422.60116600990295,421.2771818637848,None,421.2771818637848,None,421.2771818637848,None,-1,-1,1,True,384.9053382873535,392.864465713501,left,423.93319606781006,None,pp_14,icub,clamp,2021_Dec_23_1310,exp,2021.2.3,59.96677332372562,
right,go,0,0,0,0,12,3,75,3,424.4445569515228,None,1,0.7789270877838135,424.4445569515228,None,425.35739302635193,None,426.364196062088,426.70890188217163,426.364196062088,426.70890188217163,425.35739302635193,None,425.35739302635193,None,425.35739302635193,None,-1,-1,1,True,359.38215255737305,1172.8942394256592,right,428.77126693725586,None,pp_14,icub,clamp,2021_Dec_23_1310,exp,2021.2.3,59.96677332372562,
left,go,0,0,0,0,12,4,76,1,429.2857780456543,None,1,0.6466050148010254,429.2857780456543,None,430.0127799510956,None,431.01577591896057,431.3774049282074,431.01577591896057,431.3774049282074,430.0127799510956,None,430.0127799510956,None,430.0127799510956,None,-1,-1,1,True,356.5692901611328,385.5741024017334,left,432.6467719078064,None,pp_14,icub,clamp,2021_Dec_23_1310,exp,2021.2.3,59.96677332372562,
right,go,0,0,0,0,12,5,77,4,433.16437292099,None,1,0.5624539852142334,433.16437292099,None,433.82275795936584,None,434.8505530357361,435.20179295539856,434.8505530357361,435.20179295539856,433.82275795936584,None,433.82275795936584,None,433.82275795936584,None,,,0,False,3000.983953475952,-1.0,-1,438.73363995552063,None,pp_14,icub,clamp,2021_Dec_23_1310,exp,2021.2.3,59.96677332372562,
right,go,1,0,1,0,0,0,0,3,479.30144906044006,None,1,9.893571853637695,479.30144906044006,None,489.28066205978394,None,490.30600786209106,490.670166015625,490.30600786209106,490.670166015625,489.28066205978394,None,489.28066205978394,None,489.28066205978394,None,-1,-1,1,True,338.0773067474365,336.87329292297363,right,491.8414969444275,None,pp_14,icub,clamp,2021_Dec_23_1310,exp,2021.2.3,59.96677332372562,
left,go,1,0,1,0,0,1,1,0,492.3369209766388,None,1,0.47220301628112793,492.3369209766388,None,492.93901896476746,None,493.9642059803009,494.31022596359253,493.9642059803009,494.31022596359253,492.93901896476746,None,492.93901896476746,None,492.93901896476746,None,-1,-1,1,True,228.82986068725586,484.32111740112305,left,495.555645942688,None,pp_14,icub,clamp,2021_Dec_23_1310,exp,2021.2.3,59.96677332372562,
right,go,1,0,1,0,0,2,2,4,496.06569385528564,None,1,0.4133000373840332,496.06569385528564,None,496.60745906829834,None,497.62142395973206,497.9836890697479,497.62142395973206,497.9836890697479,496.60745906829834,None,496.60745906829834,None,496.60745906829834,None,-1,-1,1,True,327.96645164489746,221.51803970336914,right,499.0645260810852,None,pp_14,icub,clamp,2021_Dec_23_1310,exp,2021.2.3,59.96677332372562,
right,go,1,0,1,0,0,3,3,3,499.58234906196594,None,1,0.3995628356933594,499.58234906196594,None,500.09441089630127,None,501.1269679069519,501.48051404953003,501.1269679069519,501.48051404953003,500.09441089630127,None,500.09441089630127,None,500.09441089630127,None,-1,-1,1,True,311.145544052124,365.77296257019043,right,502.643513917923,None,pp_14,icub,clamp,2021_Dec_23_1310,exp,2021.2.3,59.96677332372562,
right,stop,1,0,1,0,0,4,4,5,503.1544380187988,None,1,0.4276289939880371,503.1544380187988,None,503.6986939907074,None,504.70111298561096,505.0381648540497,504.70111298561096,505.0381648540497,503.6986939907074,None,503.6986939907074,None,503.6986939907074,None,350,250,0,True,290.59648513793945,275.2389907836914,right,506.18181896209717,None,pp_14,icub,clamp,2021_Dec_23_1310,exp,2021.2.3,59.96677332372562,
left,go,1,0,1,0,0,5,5,0,506.68255400657654,None,1,0.5672650337219238,506.68255400657654,None,507.3498520851135,None,508.36665391921997,508.72719502449036,508.36665391921997,508.72719502449036,507.3498520851135,None,507.3498520851135,None,507.3498520851135,None,-1,-1,1,True,302.135705947876,241.88852310180664,left,509.80659198760986,None,pp_14,icub,clamp,2021_Dec_23_1310,exp,2021.2.3,59.96677332372562,
right,stop,1,0,1,0,1,0,6,5,510.3190140724182,None,1,0.43023204803466797,510.3190140724182,None,510.85938692092896,None,511.85401487350464,512.2054018974304,511.85401487350464,512.2054018974304,510.85938692092896,None,510.85938692092896,None,510.85938692092896,None,350,200,0,True,315.16242027282715,204.64706420898438,right,513.2575919628143,None,pp_14,icub,clamp,2021_Dec_23_1310,exp,2021.2.3,59.96677332372562,
right,stop,1,0,1,0,1,1,7,5,513.7527449131012,None,1,0.40401387214660645,513.7527449131012,None,514.2372999191284,None,515.2285540103912,515.5744459629059,515.2285540103912,515.5744459629059,514.2372999191284,None,514.2372999191284,None,514.2372999191284,None,350,150,0,True,370.2068328857422,354.4347286224365,right,516.8554940223694,None,pp_14,icub,clamp,2021_Dec_23_1310,exp,2021.2.3,59.96677332372562,
left,go,1,0,1,0,1,2,8,0,517.3548059463501,None,1,1.4253690242767334,517.3548059463501,None,518.885824918747,None,519.8759610652924,520.2345199584961,519.8759610652924,520.2345199584961,518.885824918747,None,518.885824918747,None,518.885824918747,None,-1,-1,1,True,309.94105339050293,360.2442741394043,left,521.4716339111328,None,pp_14,icub,clamp,2021_Dec_23_1310,exp,2021.2.3,59.96677332372562,
right,go,1,0,1,0,1,3,9,4,521.9911069869995,None,1,0.7217087745666504,521.9911069869995,None,522.842041015625,None,523.8428699970245,524.1839509010315,523.8428699970245,524.1839509010315,522.842041015625,None,522.842041015625,None,522.842041015625,None,-1,-1,1,True,271.4238166809082,261.904239654541,right,525.2491829395294,None,pp_14,icub,clamp,2021_Dec_23_1310,exp,2021.2.3,59.96677332372562,
right,stop,1,0,1,0,1,4,10,5,525.7661600112915,None,1,0.5825860500335693,525.7661600112915,None,526.4340898990631,None,527.4515628814697,527.7922449111938,527.4515628814697,527.7922449111938,526.4340898990631,None,526.4340898990631,None,526.4340898990631,None,350,100,0,True,341.95470809936523,244.65012550354004,right,528.9143900871277,None,pp_14,icub,clamp,2021_Dec_23_1310,exp,2021.2.3,59.96677332372562,
left,stop,1,0,1,0,1,5,11,2,529.416738986969,None,1,1.533958911895752,529.416738986969,None,531.0708689689636,None,532.0698289871216,532.4329259395599,532.0698289871216,532.4329259395599,531.0708689689636,None,531.0708689689636,None,531.0708689689636,None,350,50,0,True,293.7591075897217,392.1535015106201,left,533.6435430049896,None,pp_14,icub,clamp,2021_Dec_23_1310,exp,2021.2.3,59.96677332372562,
right,go,1,0,1,0,2,0,12,3,534.1432769298553,None,1,2.1815690994262695,534.1432769298553,None,536.4154109954834,None,537.4215700626373,537.7778449058533,537.4215700626373,537.7778449058533,536.4154109954834,None,536.4154109954834,None,536.4154109954834,None,-1,-1,1,True,299.7617721557617,395.5965042114258,right,539.0112750530243,None,pp_14,icub,clamp,2021_Dec_23_1310,exp,2021.2.3,59.96677332372562,
left,go,1,0,1,0,2,1,13,0,539.5350520610809,None,1,0.3350679874420166,539.5350520610809,None,539.9523320198059,None,540.9679329395294,541.3242790699005,540.9679329395294,541.3242790699005,539.9523320198059,None,539.9523320198059,None,539.9523320198059,None,-1,-1,1,True,396.70777320861816,370.6796169281006,left,542.620110988617,None,pp_14,icub,clamp,2021_Dec_23_1310,exp,2021.2.3,59.96677332372562,
left,go,1,0,1,0,2,2,14,0,543.140636920929,None,1,0.43502283096313477,543.140636920929,None,543.6810009479523,None,544.6826810836792,545.0258829593658,544.6826810836792,545.0258829593658,543.6810009479523,None,543.6810009479523,None,543.6810009479523,None,-1,-1,1,True,386.14869117736816,259.6125602722168,left,546.1988749504089,None,pp_14,icub,clamp,2021_Dec_23_1310,exp,2021.2.3,59.96677332372562,
left,go,1,0,1,0,2,3,15,1,546.7157609462738,None,1,0.6351602077484131,546.7157609462738,None,547.444433927536,None,548.4516458511353,548.8192179203033,548.4516458511353,548.8192179203033,547.444433927536,None,547.444433927536,None,547.444433927536,None,-1,-1,1,True,351.29427909851074,303.1330108642578,left,549.9932949542999,None,pp_14,icub,clamp,2021_Dec_23_1310,exp,2021.2.3,59.96677332372562,
left,go,1,0,1,0,2,4,16,0,550.5117008686066,None,1,0.4034159183502197,550.5117008686066,None,551.0333518981934,None,552.0665919780731,552.407791852951,552.0665919780731,552.407791852951,551.0333518981934,None,551.0333518981934,None,551.0333518981934,None,-1,-1,1,True,290.6453609466553,282.2532653808594,left,553.4913439750671,None,pp_14,icub,clamp,2021_Dec_23_1310,exp,2021.2.3,59.96677332372562,
right,stop,1,0,1,0,2,5,17,5,554.0016069412231,None,1,0.4209439754486084,554.0016069412231,None,554.5411059856415,None,555.5636119842529,555.9147520065308,555.5636119842529,555.9147520065308,554.5411059856415,None,554.5411059856415,None,554.5411059856415,None,300,50,1,True,296.91290855407715,-1.0,-1,559.7334599494934,None,pp_14,icub,clamp,2021_Dec_23_1310,exp,2021.2.3,59.96677332372562,
left,stop,1,0,1,0,3,0,18,2,560.2638878822327,None,1,0.5123670101165771,560.2638878822327,None,560.8757798671722,None,561.8607909679413,562.2046780586243,561.8607909679413,562.2046780586243,560.8757798671722,None,560.8757798671722,None,560.8757798671722,None,300,100,0,True,316.7285919189453,354.3379306793213,left,563.4348678588867,None,pp_14,icub,clamp,2021_Dec_23_1310,exp,2021.2.3,59.96677332372562,
left,go,1,0,1,0,3,1,19,1,563.9526109695435,None,1,0.8059341907501221,563.9526109695435,None,564.8644919395447,None,565.8615300655365,566.2127928733826,565.8615300655365,566.2127928733826,564.8644919395447,None,564.8644919395447,None,564.8644919395447,None,-1,-1,1,True,411.11207008361816,303.7071228027344,left,567.4684028625488,None,pp_14,icub,clamp,2021_Dec_23_1310,exp,2021.2.3,59.96677332372562,
right,go,1,0,1,0,3,2,20,3,567.9806270599365,None,1,0.34896397590637207,567.9806270599365,None,568.4576890468597,None,569.473690032959,569.8214008808136,569.473690032959,569.8214008808136,568.4576890468597,None,568.4576890468597,None,568.4576890468597,None,-1,-1,1,True,357.68651962280273,311.007022857666,right,571.0194158554077,None,pp_14,icub,clamp,2021_Dec_23_1310,exp,2021.2.3,59.96677332372562,
right,go,1,0,1,0,3,3,21,3,571.5541739463806,None,1,0.30126214027404785,571.5541739463806,None,571.969976902008,None,572.9611749649048,573.3078608512878,572.9611749649048,573.3078608512878,571.969976902008,None,571.969976902008,None,571.969976902008,None,-1,-1,1,True,308.8855743408203,423.0494499206543,right,574.608608007431,None,pp_14,icub,clamp,2021_Dec_23_1310,exp,2021.2.3,59.96677332372562,
right,go,1,0,1,0,3,4,22,4,575.1415300369263,None,1,0.3296051025390625,575.1415300369263,None,575.561980009079,None,576.5886669158936,576.9474289417267,576.5886669158936,576.9474289417267,575.561980009079,None,575.561980009079,None,575.561980009079,None,-1,-1,1,True,397.9768753051758,430.4981231689453,right,578.2931959629059,None,pp_14,icub,clamp,2021_Dec_23_1310,exp,2021.2.3,59.96677332372562,
left,stop,1,0,1,0,3,5,23,2,578.8118140697479,None,1,0.3747680187225342,578.8118140697479,None,579.2931098937988,None,580.3066229820251,580.6505570411682,580.3066229820251,580.6505570411682,579.2931098937988,None,579.2931098937988,None,579.2931098937988,None,250,100,1,True,355.37147521972656,-1.0,-1,584.5293140411377,None,pp_14,icub,clamp,2021_Dec_23_1310,exp,2021.2.3,59.96677332372562,
right,go,1,0,1,0,4,0,24,4,585.0609040260315,None,1,0.5031571388244629,585.0609040260315,None,585.6733820438385,None,586.6465849876404,586.9985308647156,586.6465849876404,586.9985308647156,585.6733820438385,None,585.6733820438385,None,585.6733820438385,None,-1,-1,1,True,222.05615043640137,316.2682056427002,right,588.1039249897003,None,pp_14,icub,clamp,2021_Dec_23_1310,exp,2021.2.3,59.96677332372562,
right,go,1,0,1,0,4,1,25,4,588.6046459674835,None,1,0.3237788677215576,588.6046459674835,None,589.0241739749908,None,590.0404238700867,590.3927750587463,590.0404238700867,590.3927750587463,589.0241739749908,None,589.0241739749908,None,589.0241739749908,None,-1,-1,1,True,313.3213520050049,332.02409744262695,right,591.5608260631561,None,pp_14,icub,clamp,2021_Dec_23_1310,exp,2021.2.3,59.96677332372562,
left,stop,1,0,1,0,4,2,26,2,592.0856170654297,None,1,0.25019001960754395,592.0856170654297,None,592.4313540458679,None,593.4630060195923,593.8229138851166,593.4630060195923,593.8229138851166,592.4313540458679,None,592.4313540458679,None,592.4313540458679,None,300,100,1,True,354.6411991119385,-1.0,-1,597.6592710018158,None,pp_14,icub,clamp,2021_Dec_23_1310,exp,2021.2.3,59.96677332372562,
left,go,1,0,1,0,4,3,27,1,598.1909759044647,None,1,0.9349329471588135,598.1909759044647,None,599.2350928783417,None,600.2207388877869,600.5724818706512,600.2207388877869,600.5724818706512,599.2350928783417,None,599.2350928783417,None,599.2350928783417,None,-1,-1,1,True,341.63761138916016,282.23562240600586,left,601.7622759342194,None,pp_14,icub,clamp,2021_Dec_23_1310,exp,2021.2.3,59.96677332372562,
left,stop,1,0,1,0,4,4,28,2,602.2628118991852,None,1,0.322674036026001,602.2628118991852,None,602.6802978515625,None,603.6823019981384,604.0368070602417,603.6823019981384,604.0368070602417,602.6802978515625,None,602.6802978515625,None,602.6802978515625,None,350,100,0,True,356.7080497741699,350.4469394683838,left,605.2760848999023,None,pp_14,icub,clamp,2021_Dec_23_1310,exp,2021.2.3,59.96677332372562,
right,go,1,0,1,0,4,5,29,3,605.7964699268341,None,1,0.6385259628295898,605.7964699268341,None,606.5257580280304,None,607.548565864563,607.9141139984131,607.548565864563,607.9141139984131,606.5257580280304,None,606.5257580280304,None,606.5257580280304,None,-1,-1,1,True,287.6601219177246,513.2536888122559,right,609.2110769748688,None,pp_14,icub,clamp,2021_Dec_23_1310,exp,2021.2.3,59.96677332372562,
left,go,1,0,1,0,5,0,30,1,609.7305839061737,None,1,0.3256981372833252,609.7305839061737,None,610.1488070487976,None,611.1727240085602,611.5206260681152,611.1727240085602,611.5206260681152,610.1488070487976,None,610.1488070487976,None,610.1488070487976,None,-1,-1,1,True,136.8575096130371,657.3755741119385,left,612.8318219184875,None,pp_14,icub,clamp,2021_Dec_23_1310,exp,2021.2.3,59.96677332372562,
left,go,1,0,1,0,5,1,31,1,613.3452899456024,None,1,0.1776409149169922,613.3452899456024,None,613.6366848945618,None,614.6564979553223,615.0029859542847,614.6564979553223,615.0029859542847,613.6366848945618,None,613.6366848945618,None,613.6366848945618,None,-1,-1,1,True,324.1586685180664,444.35596466064453,left,616.2948129177094,None,pp_14,icub,clamp,2021_Dec_23_1310,exp,2021.2.3,59.96677332372562,
right,go,1,0,1,0,5,2,32,3,616.8052709102631,None,1,0.20241189002990723,616.8052709102631,None,617.0984649658203,None,618.1035828590393,618.4561350345612,618.1035828590393,618.4561350345612,617.0984649658203,None,617.0984649658203,None,617.0984649658203,None,-1,-1,1,True,401.63636207580566,426.53894424438477,right,619.8159840106964,None,pp_14,icub,clamp,2021_Dec_23_1310,exp,2021.2.3,59.96677332372562,
left,go,1,0,1,0,5,3,33,0,620.3333518505096,None,1,0.06993484497070312,620.3333518505096,None,620.5006589889526,None,621.5163209438324,621.8722200393677,621.5163209438324,621.8722200393677,620.5006589889526,None,620.5006589889526,None,620.5006589889526,None,-1,-1,1,True,404.132604598999,352.78987884521484,left,623.1559419631958,None,pp_14,icub,clamp,2021_Dec_23_1310,exp,2021.2.3,59.96677332372562,
left,stop,1,0,1,0,5,4,34,2,623.6746618747711,None,1,0.08577489852905273,623.6746618747711,None,623.8389370441437,None,624.8319919109344,625.1768090724945,624.8319919109344,625.1768090724945,623.8389370441437,None,623.8389370441437,None,623.8389370441437,None,300,100,1,True,348.6158847808838,-1.0,-1,629.0969030857086,None,pp_14,icub,clamp,2021_Dec_23_1310,exp,2021.2.3,59.96677332372562,
left,stop,1,0,1,0,5,5,35,2,629.6278879642487,None,1,0.6379501819610596,629.6278879642487,None,630.364767074585,None,631.3426489830017,631.7077798843384,631.3426489830017,631.7077798843384,630.364767074585,None,630.364767074585,None,630.364767074585,None,350,100,0,True,327.1317481994629,445.8954334259033,left,633.040787935257,None,pp_14,icub,clamp,2021_Dec_23_1310,exp,2021.2.3,59.96677332372562,
left,go,1,0,1,0,6,0,36,0,633.5441949367523,None,1,0.34673500061035156,633.5441949367523,None,633.9665319919586,None,634.9609379768372,635.3264698982239,634.9609379768372,635.3264698982239,633.9665319919586,None,633.9665319919586,None,633.9665319919586,None,-1,-1,1,True,316.99466705322266,569.5631504058838,left,636.7475209236145,None,pp_14,icub,clamp,2021_Dec_23_1310,exp,2021.2.3,59.96677332372562,
right,go,1,0,1,0,6,1,37,4,637.2618298530579,None,1,0.06826186180114746,637.2618298530579,None,637.436646938324,None,638.4484269618988,638.8105280399323,638.4484269618988,638.8105280399323,637.436646938324,None,637.436646938324,None,637.436646938324,None,-1,-1,1,True,343.2447910308838,405.67898750305176,right,640.0887520313263,None,pp_14,icub,clamp,2021_Dec_23_1310,exp,2021.2.3,59.96677332372562,
right,stop,1,0,1,0,6,2,38,5,640.6056170463562,None,1,0.22940301895141602,640.6056170463562,None,640.9591438770294,None,641.9739639759064,642.3124339580536,641.9739639759064,642.3124339580536,640.9591438770294,None,640.9591438770294,None,640.9591438770294,None,300,100,1,True,202.08311080932617,-1.0,-1,646.0329260826111,None,pp_14,icub,clamp,2021_Dec_23_1310,exp,2021.2.3,59.96677332372562,
left,go,1,0,1,0,6,3,39,1,646.5647070407867,None,1,0.5929419994354248,646.5647070407867,None,647.2378890514374,None,648.2246160507202,648.5836379528046,648.2246160507202,648.5836379528046,647.2378890514374,None,647.2378890514374,None,647.2378890514374,None,-1,-1,1,True,325.6819248199463,471.1298942565918,left,649.9054880142212,None,pp_14,icub,clamp,2021_Dec_23_1310,exp,2021.2.3,59.96677332372562,
right,go,1,0,1,0,6,4,40,3,650.4196848869324,None,1,0.09917497634887695,650.4196848869324,None,650.6513018608093,None,651.6520009040833,652.0037350654602,651.6520009040833,652.0037350654602,650.6513018608093,None,650.6513018608093,None,650.6513018608093,None,-1,-1,1,True,306.7803382873535,424.92008209228516,right,653.2686729431152,None,pp_14,icub,clamp,2021_Dec_23_1310,exp,2021.2.3,59.96677332372562,
right,go,1,0,1,0,6,5,41,4,653.802857875824,None,1,0.22233080863952637,653.802857875824,None,654.153725862503,None,655.1726858615875,655.5407509803772,655.1726858615875,655.5407509803772,654.153725862503,None,654.153725862503,None,654.153725862503,None,-1,-1,1,True,321.81239128112793,322.01409339904785,right,656.7075979709625,None,pp_14,icub,clamp,2021_Dec_23_1310,exp,2021.2.3,59.96677332372562,
left,stop,1,0,1,0,7,0,42,2,657.2252860069275,None,1,0.3329651355743408,657.2252860069275,None,657.6438488960266,None,658.6613938808441,659.0115249156952,658.6613938808441,659.0115249156952,657.6438488960266,None,657.6438488960266,None,657.6438488960266,None,300,150,1,True,330.7311534881592,-1.0,-1,662.8705348968506,None,pp_14,icub,clamp,2021_Dec_23_1310,exp,2021.2.3,59.96677332372562,
left,go,1,0,1,0,7,1,43,1,663.4024140834808,None,1,1.063068151473999,663.4024140834808,None,664.5726850032806,None,665.5514049530029,665.9033858776093,665.5514049530029,665.9033858776093,664.5726850032806,None,664.5726850032806,None,664.5726850032806,None,-1,-1,1,True,284.14273262023926,293.4999465942383,left,667.0487098693848,None,pp_14,icub,clamp,2021_Dec_23_1310,exp,2021.2.3,59.96677332372562,
right,stop,1,0,1,0,7,2,44,5,667.5730938911438,None,1,0.4658060073852539,667.5730938911438,None,668.1662259101868,None,669.1986398696899,669.5464398860931,669.1986398696899,669.5464398860931,668.1662259101868,None,668.1662259101868,None,668.1662259101868,None,350,150,1,True,325.19030570983887,-1.0,-1,673.3933019638062,None,pp_14,icub,clamp,2021_Dec_23_1310,exp,2021.2.3,59.96677332372562,
left,go,1,0,1,0,7,3,45,1,673.9264490604401,None,1,0.6561188697814941,673.9264490604401,None,674.6634979248047,None,675.6434590816498,675.9845860004425,675.6434590816498,675.9845860004425,674.6634979248047,None,674.6634979248047,None,674.6634979248047,None,-1,-1,1,True,326.918363571167,299.84474182128906,left,677.1913619041443,None,pp_14,icub,clamp,2021_Dec_23_1310,exp,2021.2.3,59.96677332372562,
left,go,1,0,1,0,7,4,46,1,677.6974499225616,None,1,0.4075889587402344,677.6974499225616,None,678.2329280376434,None,679.2295639514923,679.5886600017548,679.2295639514923,679.5886600017548,678.2329280376434,None,678.2329280376434,None,678.2329280376434,None,-1,-1,1,True,312.2220039367676,173.83885383605957,left,680.6074440479279,None,pp_14,icub,clamp,2021_Dec_23_1310,exp,2021.2.3,59.96677332372562,
right,stop,1,0,1,0,7,5,47,5,681.1155779361725,None,1,0.9141950607299805,681.1155779361725,None,682.1494379043579,None,683.1534008979797,683.5137410163879,683.1534008979797,683.5137410163879,682.1494379043579,None,682.1494379043579,None,682.1494379043579,None,350,200,0,True,271.1982727050781,295.55249214172363,right,684.6179189682007,None,pp_14,icub,clamp,2021_Dec_23_1310,exp,2021.2.3,59.96677332372562,
right,stop,1,0,1,0,8,0,48,5,685.1485960483551,None,1,0.6791059970855713,685.1485960483551,None,685.9382510185242,None,686.9356129169464,687.2916848659515,686.9356129169464,687.2916848659515,685.9382510185242,None,685.9382510185242,None,685.9382510185242,None,350,150,1,True,309.7374439239502,-1.0,-1,691.1291658878326,None,pp_14,icub,clamp,2021_Dec_23_1310,exp,2021.2.3,59.96677332372562,
left,stop,1,0,1,0,8,1,49,2,691.6225459575653,None,1,0.5497469902038574,691.6225459575653,None,692.2968008518219,None,693.277312040329,693.6248998641968,693.277312040329,693.6248998641968,692.2968008518219,None,692.2968008518219,None,692.2968008518219,None,350,200,0,True,279.1428565979004,358.2921028137207,left,694.830384016037,None,pp_14,icub,clamp,2021_Dec_23_1310,exp,2021.2.3,59.96677332372562,
left,go,1,0,1,0,8,2,50,1,695.3332068920135,None,1,0.6914751529693604,695.3332068920135,None,696.1224138736725,None,697.1310548782349,697.4814660549164,697.1310548782349,697.4814660549164,696.1224138736725,None,696.1224138736725,None,696.1224138736725,None,-1,-1,1,True,335.768461227417,378.5998821258545,left,698.7364220619202,None,pp_14,icub,clamp,2021_Dec_23_1310,exp,2021.2.3,59.96677332372562,
left,go,1,0,1,0,8,3,51,0,699.2425239086151,None,1,0.3086261749267578,699.2425239086151,None,699.6613390445709,None,700.6744940280914,701.0141880512238,700.6744940280914,701.0141880512238,699.6613390445709,None,699.6613390445709,None,699.6613390445709,None,-1,-1,1,True,277.8046131134033,325.90579986572266,left,702.1400270462036,None,pp_14,icub,clamp,2021_Dec_23_1310,exp,2021.2.3,59.96677332372562,
right,go,1,0,1,0,8,4,52,4,702.6598329544067,None,1,0.6002440452575684,702.6598329544067,None,703.3840339183807,None,704.3878738880157,704.7530000209808,704.3878738880157,704.7530000209808,703.3840339183807,None,703.3840339183807,None,703.3840339183807,None,-1,-1,1,True,274.491548538208,299.61252212524414,right,705.858845949173,None,pp_14,icub,clamp,2021_Dec_23_1310,exp,2021.2.3,59.96677332372562,
left,stop,1,0,1,0,8,5,53,2,706.3930158615112,None,1,0.6218950748443604,706.3930158615112,None,707.1219909191132,None,708.1334900856018,708.4829759597778,708.1334900856018,708.4829759597778,707.1219909191132,None,707.1219909191132,None,707.1219909191132,None,300,200,0,True,305.41276931762695,297.8549003601074,left,709.6122748851776,None,pp_14,icub,clamp,2021_Dec_23_1310,exp,2021.2.3,59.96677332372562,
left,go,1,0,1,0,9,0,54,0,710.1289839744568,None,1,0.489516019821167,710.1289839744568,None,710.7316808700562,None,711.7478199005127,712.1166920661926,711.7478199005127,712.1166920661926,710.7316808700562,None,710.7316808700562,None,710.7316808700562,None,-1,-1,1,True,413.80929946899414,297.14035987854004,left,713.3434040546417,None,pp_14,icub,clamp,2021_Dec_23_1310,exp,2021.2.3,59.96677332372562,
left,stop,1,0,1,0,9,1,55,2,713.846225976944,None,1,0.39938902854919434,713.846225976944,None,714.326180934906,None,715.3367068767548,715.6811280250549,715.3367068767548,715.6811280250549,714.326180934906,None,714.326180934906,None,714.326180934906,None,250,200,0,True,277.5759696960449,227.57959365844727,left,716.7184569835663,None,pp_14,icub,clamp,2021_Dec_23_1310,exp,2021.2.3,59.96677332372562,
left,go,1,0,1,0,9,2,56,1,717.236319065094,None,1,0.4694058895111084,717.236319065094,None,717.8133668899536,None,718.8274538516998,719.1498749256134,718.8274538516998,719.1498749256134,717.8133668899536,None,717.8133668899536,None,717.8133668899536,None,-1,-1,1,True,318.9101219177246,374.5548725128174,left,720.4080798625946,None,pp_14,icub,clamp,2021_Dec_23_1310,exp,2021.2.3,59.96677332372562,
left,stop,1,0,1,0,9,3,57,2,720.9188048839569,None,1,0.4359719753265381,720.9188048839569,None,721.4604089260101,None,722.4702320098877,722.8231048583984,722.4702320098877,722.8231048583984,721.4604089260101,None,721.4604089260101,None,721.4604089260101,None,200,200,1,True,306.00976943969727,-1.0,-1,726.6607809066772,None,pp_14,icub,clamp,2021_Dec_23_1310,exp,2021.2.3,59.96677332372562,
left,stop,1,0,1,0,9,4,58,2,727.1919319629669,None,1,0.47921109199523926,727.1919319629669,None,727.8028569221497,None,728.7813658714294,729.1469769477844,728.7813658714294,729.1469769477844,727.8028569221497,None,727.8028569221497,None,727.8028569221497,None,250,200,0,True,298.3067035675049,184.23938751220703,left,730.1542239189148,None,pp_14,icub,clamp,2021_Dec_23_1310,exp,2021.2.3,59.96677332372562,
right,go,1,0,1,0,9,5,59,3,730.6523668766022,None,1,0.7664210796356201,730.6523668766022,None,731.5044260025024,None,732.5064840316772,732.8510508537292,732.5064840316772,732.8510508537292,731.5044260025024,None,731.5044260025024,None,731.5044260025024,None,-1,-1,1,True,310.88805198669434,287.81652450561523,right,733.9841918945312,None,pp_14,icub,clamp,2021_Dec_23_1310,exp,2021.2.3,59.96677332372562,
right,go,1,0,1,0,10,0,60,4,734.4953298568726,None,1,0.3084559440612793,734.4953298568726,None,734.9133250713348,None,735.9193680286407,736.270045042038,735.9193680286407,736.270045042038,734.9133250713348,None,734.9133250713348,None,734.9133250713348,None,-1,-1,1,True,299.3290424346924,171.583890914917,right,737.2719478607178,None,pp_14,icub,clamp,2021_Dec_23_1310,exp,2021.2.3,59.96677332372562,
right,go,1,0,1,0,10,1,61,3,737.7804138660431,None,1,0.8531999588012695,737.7804138660431,None,738.7569749355316,None,739.7586629390717,740.1156198978424,739.7586629390717,740.1156198978424,738.7569749355316,None,738.7569749355316,None,738.7569749355316,None,-1,-1,1,True,295.89319229125977,359.0531349182129,right,741.3169119358063,None,pp_14,icub,clamp,2021_Dec_23_1310,exp,2021.2.3,59.96677332372562,
right,go,1,0,1,0,10,2,62,3,741.8320748806,None,1,0.37029504776000977,741.8320748806,None,742.312262058258,None,743.31973695755,743.6705899238586,743.31973695755,743.6705899238586,742.312262058258,None,742.312262058258,None,742.312262058258,None,-1,-1,1,True,320.73497772216797,345.0055122375488,right,744.8501179218292,None,pp_14,icub,clamp,2021_Dec_23_1310,exp,2021.2.3,59.96677332372562,
right,stop,1,0,1,0,10,3,63,5,745.3606040477753,None,1,0.49069881439208984,745.3606040477753,None,745.9650120735168,None,746.9910140037537,747.3427679538727,746.9910140037537,747.3427679538727,745.9650120735168,None,745.9650120735168,None,745.9650120735168,None,200,200,0,True,312.09683418273926,306.3797950744629,right,748.476480960846,None,pp_14,icub,clamp,2021_Dec_23_1310,exp,2021.2.3,59.96677332372562,
left,go,1,0,1,0,10,4,64,1,748.9944009780884,None,1,0.5567469596862793,748.9944009780884,None,749.6240859031677,None,750.6534850597382,751.0173950195312,750.6534850597382,751.0173950195312,749.6240859031677,None,749.6240859031677,None,749.6240859031677,None,-1,-1,1,True,349.67637062072754,365.36574363708496,left,752.2231180667877,None,pp_14,icub,clamp,2021_Dec_23_1310,exp,2021.2.3,59.96677332372562,
right,stop,1,0,1,0,10,5,65,5,752.7382318973541,None,1,0.631303071975708,752.7382318973541,None,753.4574160575867,None,754.4863929748535,754.8223268985748,754.4863929748535,754.8223268985748,753.4574160575867,None,753.4574160575867,None,753.4574160575867,None,200,150,1,True,293.3776378631592,-1.0,-1,758.647402048111,None,pp_14,icub,clamp,2021_Dec_23_1310,exp,2021.2.3,59.96677332372562,
right,stop,1,0,1,0,11,0,66,5,759.1795370578766,None,1,0.6904458999633789,759.1795370578766,None,759.978276014328,None,760.9544820785522,761.3052179813385,760.9544820785522,761.3052179813385,759.978276014328,None,759.978276014328,None,759.978276014328,None,200,200,0,True,370.78189849853516,326.28822326660156,right,762.5701239109039,None,pp_14,icub,clamp,2021_Dec_23_1310,exp,2021.2.3,59.96677332372562,
right,go,1,0,1,0,11,1,67,4,763.0847718715668,None,1,1.1223909854888916,763.0847718715668,None,764.3074290752411,None,765.3178398609161,765.6456639766693,765.3178398609161,765.6456639766693,764.3074290752411,None,764.3074290752411,None,764.3074290752411,None,-1,-1,1,True,468.11747550964355,423.0363368988037,right,767.0762798786163,None,pp_14,icub,clamp,2021_Dec_23_1310,exp,2021.2.3,59.96677332372562,
left,go,1,0,1,0,11,2,68,0,767.5706589221954,None,1,0.5317869186401367,767.5706589221954,None,768.1780860424042,None,769.1720089912415,769.5289530754089,769.1720089912415,769.5289530754089,768.1780860424042,None,768.1780860424042,None,768.1780860424042,None,-1,-1,1,True,406.4671993255615,407.72128105163574,left,770.8655300140381,None,pp_14,icub,clamp,2021_Dec_23_1310,exp,2021.2.3,59.96677332372562,
left,go,1,0,1,0,11,3,69,0,771.3861510753632,None,1,0.45848608016967773,771.3861510753632,None,771.9300549030304,None,772.955265045166,773.3018839359283,772.955265045166,773.3018839359283,771.9300549030304,None,771.9300549030304,None,771.9300549030304,None,-1,-1,1,True,547.7185249328613,298.9327907562256,left,774.6721770763397,None,pp_14,icub,clamp,2021_Dec_23_1310,exp,2021.2.3,59.96677332372562,
right,go,1,0,1,0,11,4,70,4,775.17822098732,None,1,0.6373021602630615,775.17822098732,None,775.9058439731598,None,776.9027769565582,777.2291550636292,776.9027769565582,777.2291550636292,775.9058439731598,None,775.9058439731598,None,775.9058439731598,None,,,0,False,3000.483274459839,-1.0,-1,780.8147969245911,None,pp_14,icub,clamp,2021_Dec_23_1310,exp,2021.2.3,59.96677332372562,
right,go,1,0,1,0,11,5,71,3,781.3096618652344,None,1,0.8134980201721191,781.3096618652344,None,782.2288150787354,None,783.2321770191193,783.5909459590912,783.2321770191193,783.5909459590912,782.2288150787354,None,782.2288150787354,None,782.2288150787354,None,-1,-1,1,True,343.4338569641113,286.40198707580566,right,784.7557189464569,None,pp_14,icub,clamp,2021_Dec_23_1310,exp,2021.2.3,59.96677332372562,
left,go,1,0,1,0,12,0,72,0,785.2670710086823,None,1,0.3704710006713867,785.2670710086823,None,785.7473809719086,None,786.7771379947662,787.1314940452576,786.7771379947662,787.1314940452576,785.7473809719086,None,785.7473809719086,None,785.7473809719086,None,-1,-1,1,True,357.7113151550293,302.03962326049805,left,788.3187370300293,None,pp_14,icub,clamp,2021_Dec_23_1310,exp,2021.2.3,59.96677332372562,
right,go,1,0,1,0,12,1,73,4,788.8328020572662,None,1,0.33840394020080566,788.8328020572662,None,789.2516589164734,None,790.2542610168457,790.600182056427,790.2542610168457,790.600182056427,789.2516589164734,None,789.2516589164734,None,789.2516589164734,None,-1,-1,1,True,309.049129486084,406.28933906555176,right,791.8734600543976,None,pp_14,icub,clamp,2021_Dec_23_1310,exp,2021.2.3,59.96677332372562,
right,go,1,0,1,0,12,2,74,3,792.3999190330505,None,1,0.540194034576416,792.3999190330505,None,793.0632219314575,None,794.0750269889832,794.4179980754852,794.0750269889832,794.4179980754852,793.0632219314575,None,793.0632219314575,None,793.0632219314575,None,-1,-1,1,True,330.95622062683105,390.60378074645996,right,795.6563708782196,None,pp_14,icub,clamp,2021_Dec_23_1310,exp,2021.2.3,59.96677332372562,
right,go,1,0,1,0,12,3,75,4,796.1672310829163,None,1,0.3552060127258301,796.1672310829163,None,796.6455290317535,None,797.6571319103241,797.980418920517,797.6571319103241,797.980418920517,796.6455290317535,None,796.6455290317535,None,796.6455290317535,None,-1,-1,1,True,400.7761478424072,440.2139186859131,right,799.3878290653229,None,pp_14,icub,clamp,2021_Dec_23_1310,exp,2021.2.3,59.96677332372562,
left,go,1,0,1,0,12,4,76,1,799.8959410190582,None,1,0.4502861499786377,799.8959410190582,None,800.4369430541992,None,801.4550230503082,801.7989640235901,801.4550230503082,801.7989640235901,800.4369430541992,None,800.4369430541992,None,800.4369430541992,None,-1,-1,1,True,347.766637802124,396.9402313232422,left,803.0655400753021,None,pp_14,icub,clamp,2021_Dec_23_1310,exp,2021.2.3,59.96677332372562,
right,stop,1,0,1,0,12,5,77,5,803.5793330669403,None,1,0.5699119567871094,803.5793330669403,None,804.2499969005585,None,805.2708399295807,805.6237750053406,805.2708399295807,805.6237750053406,804.2499969005585,None,804.2499969005585,None,804.2499969005585,None,200,150,0,True,324.6448040008545,323.67825508117676,right,806.8014249801636,None,pp_14,icub,clamp,2021_Dec_23_1310,exp,2021.2.3,59.96677332372562,
right,stop,2,0,2,0,0,0,0,5,848.2570860385895,None,1,17.163805961608887,848.2570860385895,None,865.5451290607452,None,866.5399470329285,866.9005930423737,866.5399470329285,866.9005930423737,865.5451290607452,None,865.5451290607452,None,865.5451290607452,None,,,0,False,-1.0,-1.0,-1,867.3428409099579,None,pp_14,icub,clamp,2021_Dec_23_1310,exp,2021.2.3,59.96677332372562,
right,go,2,0,2,0,0,1,1,4,867.8755309581757,None,1,0.7747671604156494,867.8755309581757,None,868.7363409996033,None,869.7214109897614,870.0618169307709,869.7214109897614,870.0618169307709,868.7363409996033,None,868.7363409996033,None,868.7363409996033,None,-1,-1,1,True,401.4103412628174,374.4931221008301,right,871.3953020572662,None,pp_14,icub,clamp,2021_Dec_23_1310,exp,2021.2.3,59.96677332372562,
right,go,2,0,2,0,0,2,2,3,871.9099628925323,None,1,0.1429760456085205,871.9099628925323,None,872.14359998703,None,873.1577620506287,873.5153579711914,873.1577620506287,873.5153579711914,872.14359998703,None,872.14359998703,None,872.14359998703,None,-1,-1,1,True,310.89305877685547,316.15614891052246,right,874.671355009079,None,pp_14,icub,clamp,2021_Dec_23_1310,exp,2021.2.3,59.96677332372562,
left,go,2,0,2,0,0,3,3,1,875.20703291893,None,1,0.36751580238342285,875.20703291893,None,875.6871628761292,None,876.7168629169464,877.0725870132446,876.7168629169464,877.0725870132446,875.6871628761292,None,875.6871628761292,None,875.6871628761292,None,-1,-1,1,True,314.23449516296387,194.22054290771484,left,878.0873699188232,None,pp_14,icub,clamp,2021_Dec_23_1310,exp,2021.2.3,59.96677332372562,
left,go,2,0,2,0,0,4,4,0,878.614767074585,None,1,0.5123720169067383,878.614767074585,None,879.2176859378815,None,880.2361719608307,880.5887680053711,880.2361719608307,880.5887680053711,879.2176859378815,None,879.2176859378815,None,879.2176859378815,None,-1,-1,1,True,291.7141914367676,303.39837074279785,left,881.7134568691254,None,pp_14,icub,clamp,2021_Dec_23_1310,exp,2021.2.3,59.96677332372562,
left,go,2,0,2,0,0,5,5,1,882.2388739585876,None,1,0.41913390159606934,882.2388739585876,None,882.7810609340668,None,883.8134288787842,884.1474530696869,883.8134288787842,884.1474530696869,882.7810609340668,None,882.7810609340668,None,882.7810609340668,None,-1,-1,1,True,288.35391998291016,362.6062870025635,left,885.3152098655701,None,pp_14,icub,clamp,2021_Dec_23_1310,exp,2021.2.3,59.96677332372562,
left,stop,2,0,2,0,1,0,6,2,885.8290429115295,None,1,0.21999812126159668,885.8290429115295,None,886.1820139884949,None,887.2001619338989,887.5612099170685,887.2001619338989,887.5612099170685,886.1820139884949,None,886.1820139884949,None,886.1820139884949,None,200,100,0,True,123.40354919433594,311.8886947631836,left,888.5321998596191,None,pp_14,icub,clamp,2021_Dec_23_1310,exp,2021.2.3,59.96677332372562,
left,go,2,0,2,0,1,1,7,0,889.0640449523926,None,1,0.8858091831207275,889.0640449523926,None,890.0403120517731,None,891.0561618804932,891.4062070846558,891.0561618804932,891.4062070846558,890.0403120517731,None,890.0403120517731,None,890.0403120517731,None,-1,-1,1,True,298.450231552124,417.8590774536133,left,892.6595530509949,None,pp_14,icub,clamp,2021_Dec_23_1310,exp,2021.2.3,59.96677332372562,
left,stop,2,0,2,0,1,2,8,2,893.1702270507812,None,1,0.30774903297424316,893.1702270507812,None,893.5874960422516,None,894.5976798534393,894.9459400177002,894.5976798534393,894.9459400177002,893.5874960422516,None,893.5874960422516,None,893.5874960422516,None,150,100,0,True,254.32968139648438,304.3098449707031,left,896.0352718830109,None,pp_14,icub,clamp,2021_Dec_23_1310,exp,2021.2.3,59.96677332372562,
right,go,2,0,2,0,1,3,9,3,896.550451040268,None,1,0.7432029247283936,896.550451040268,None,897.4034509658813,None,898.4075849056244,898.7651660442352,898.4075849056244,898.7651660442352,897.4034509658813,None,897.4034509658813,None,897.4034509658813,None,-1,-1,1,True,312.6809597015381,402.47464179992676,right,900.0041348934174,None,pp_14,icub,clamp,2021_Dec_23_1310,exp,2021.2.3,59.96677332372562,
right,go,2,0,2,0,1,4,10,4,900.525997877121,None,1,0.3875448703765869,900.525997877121,None,901.0024859905243,None,902.0173630714417,902.3578510284424,902.0173630714417,902.3578510284424,901.0024859905243,None,901.0024859905243,None,901.0024859905243,None,-1,-1,1,True,274.0335464477539,488.65818977355957,right,903.6489169597626,None,pp_14,icub,clamp,2021_Dec_23_1310,exp,2021.2.3,59.96677332372562,
left,stop,2,0,2,0,1,5,11,2,904.16060090065,None,1,0.4460029602050781,904.16060090065,None,904.7075090408325,None,905.6981530189514,906.0515480041504,905.6981530189514,906.0515480041504,904.7075090408325,None,904.7075090408325,None,904.7075090408325,None,100,100,1,True,277.6155471801758,-1.0,-1,909.8936619758606,None,pp_14,icub,clamp,2021_Dec_23_1310,exp,2021.2.3,59.96677332372562,
right,go,2,0,2,0,2,0,12,4,910.4261128902435,None,1,1.1801621913909912,910.4261128902435,None,911.7287578582764,None,912.7086100578308,913.0628249645233,912.7086100578308,913.0628249645233,911.7287578582764,None,911.7287578582764,None,911.7287578582764,None,-1,-1,1,True,288.07520866394043,329.3581008911133,right,914.2461910247803,None,pp_14,icub,clamp,2021_Dec_23_1310,exp,2021.2.3,59.96677332372562,
left,go,2,0,2,0,2,1,13,0,914.7782640457153,None,1,0.41957712173461914,914.7782640457153,None,915.3181140422821,None,916.3211989402771,916.6749339103699,916.3211989402771,916.6749339103699,915.3181140422821,None,915.3181140422821,None,915.3181140422821,None,-1,-1,1,True,322.5533962249756,400.2814292907715,left,917.9184560775757,None,pp_14,icub,clamp,2021_Dec_23_1310,exp,2021.2.3,59.96677332372562,
right,go,2,0,2,0,2,2,14,3,918.431529045105,None,1,0.3832399845123291,918.431529045105,None,918.9157829284668,None,919.9383900165558,920.2873978614807,919.9383900165558,920.2873978614807,918.9157829284668,None,918.9157829284668,None,918.9157829284668,None,-1,-1,1,True,318.7136650085449,360.8107566833496,right,921.4856050014496,None,pp_14,icub,clamp,2021_Dec_23_1310,exp,2021.2.3,59.96677332372562,
left,go,2,0,2,0,2,3,15,1,922.0193860530853,None,1,0.5411739349365234,922.0193860530853,None,922.684268951416,None,923.7018890380859,924.0587420463562,923.7018890380859,924.0587420463562,922.684268951416,None,922.684268951416,None,922.684268951416,None,-1,-1,1,True,348.9117622375488,523.6854553222656,left,925.4611270427704,None,pp_14,icub,clamp,2021_Dec_23_1310,exp,2021.2.3,59.96677332372562,
right,go,2,0,2,0,2,4,16,4,925.9750380516052,None,1,0.36258697509765625,925.9750380516052,None,926.4560730457306,None,927.458587884903,927.8165519237518,927.458587884903,927.8165519237518,926.4560730457306,None,926.4560730457306,None,926.4560730457306,None,-1,-1,1,True,342.96703338623047,336.55595779418945,right,929.0093319416046,None,pp_14,icub,clamp,2021_Dec_23_1310,exp,2021.2.3,59.96677332372562,
left,stop,2,0,2,0,2,5,17,2,929.5446529388428,None,1,0.40299296379089355,929.5446529388428,None,930.0280530452728,None,931.0185539722443,931.3691718578339,931.0185539722443,931.3691718578339,930.0280530452728,None,930.0280530452728,None,930.0280530452728,None,150,100,0,True,313.9607906341553,240.71693420410156,left,932.4558119773865,None,pp_14,icub,clamp,2021_Dec_23_1310,exp,2021.2.3,59.96677332372562,
left,go,2,0,2,0,3,0,18,1,932.9816288948059,None,1,0.5455670356750488,932.9816288948059,None,933.6486880779266,None,934.673614025116,935.0389630794525,934.673614025116,935.0389630794525,933.6486880779266,None,933.6486880779266,None,933.6486880779266,None,-1,-1,1,True,283.5097312927246,384.8583698272705,left,936.1931848526001,None,pp_14,icub,clamp,2021_Dec_23_1310,exp,2021.2.3,59.96677332372562,
left,go,2,0,2,0,3,1,19,1,936.7123370170593,None,1,0.5483200550079346,936.7123370170593,None,937.3764319419861,None,938.3941938877106,938.7516238689423,938.3941938877106,938.7516238689423,937.3764319419861,None,937.3764319419861,None,937.3764319419861,None,-1,-1,1,True,318.60923767089844,567.1851634979248,left,940.1460058689117,None,pp_14,icub,clamp,2021_Dec_23_1310,exp,2021.2.3,59.96677332372562,
left,go,2,0,2,0,3,2,20,0,940.6822459697723,None,1,0.44133901596069336,940.6822459697723,None,941.2270650863647,None,942.229583978653,942.5568370819092,942.229583978653,942.5568370819092,941.2270650863647,None,941.2270650863647,None,941.2270650863647,None,-1,-1,1,True,353.92117500305176,322.47018814086914,left,943.8069589138031,None,pp_14,icub,clamp,2021_Dec_23_1310,exp,2021.2.3,59.96677332372562,
left,go,2,0,2,0,3,3,21,1,944.3313360214233,None,1,0.6750562191009521,944.3313360214233,None,945.1130518913269,None,946.1112759113312,946.4623119831085,946.1112759113312,946.4623119831085,945.1130518913269,None,945.1130518913269,None,945.1130518913269,None,-1,-1,1,True,325.50692558288574,391.2320137023926,left,947.7058320045471,None,pp_14,icub,clamp,2021_Dec_23_1310,exp,2021.2.3,59.96677332372562,
left,stop,2,0,2,0,3,4,22,2,948.2380199432373,None,1,0.349290132522583,948.2380199432373,None,948.7152199745178,None,949.7132499217987,950.0621380805969,949.7132499217987,950.0621380805969,948.7152199745178,None,948.7152199745178,None,948.7152199745178,None,100,100,1,True,299.452543258667,-1.0,-1,953.9190220832825,None,pp_14,icub,clamp,2021_Dec_23_1310,exp,2021.2.3,59.96677332372562,
right,stop,2,0,2,0,3,5,23,5,954.4513330459595,None,1,0.8935809135437012,954.4513330459595,None,955.4341299533844,None,956.4258320331573,956.7865309715271,956.4258320331573,956.7865309715271,955.4341299533844,None,955.4341299533844,None,955.4341299533844,None,150,100,0,True,305.21106719970703,166.85938835144043,right,957.7842350006104,None,pp_14,icub,clamp,2021_Dec_23_1310,exp,2021.2.3,59.96677332372562,
right,stop,2,0,2,0,4,0,24,5,958.2873589992523,None,1,0.6344151496887207,958.2873589992523,None,959.0124950408936,None,960.0234940052032,960.3902320861816,960.0234940052032,960.3902320861816,959.0124950408936,None,959.0124950408936,None,959.0124950408936,None,150,50,1,True,347.39184379577637,-1.0,-1,964.2655160427094,None,pp_14,icub,clamp,2021_Dec_23_1310,exp,2021.2.3,59.96677332372562,
right,go,2,0,2,0,4,1,25,3,964.7603089809418,None,1,0.6937308311462402,964.7603089809418,None,965.5574898719788,None,966.5381200313568,966.8978440761566,966.5381200313568,966.8978440761566,965.5574898719788,None,965.5574898719788,None,965.5574898719788,None,-1,-1,1,True,291.6274070739746,324.48720932006836,right,968.0666270256042,None,pp_14,icub,clamp,2021_Dec_23_1310,exp,2021.2.3,59.96677332372562,
right,go,2,0,2,0,4,2,26,4,968.584713935852,None,1,0.3388049602508545,968.584713935852,None,969.0040419101715,None,970.0033209323883,970.3658699989319,970.0033209323883,970.3658699989319,969.0040419101715,None,969.0040419101715,None,969.0040419101715,None,-1,-1,1,True,350.5985736846924,382.6305866241455,right,971.6227550506592,None,pp_14,icub,clamp,2021_Dec_23_1310,exp,2021.2.3,59.96677332372562,
right,stop,2,0,2,0,4,3,27,5,972.1369540691376,None,1,0.5124850273132324,972.1369540691376,None,972.739914894104,None,973.7592740058899,974.1160418987274,973.7592740058899,974.1160418987274,972.739914894104,None,972.739914894104,None,972.739914894104,None,150,100,1,True,326.31635665893555,-1.0,-1,977.9724900722504,None,pp_14,icub,clamp,2021_Dec_23_1310,exp,2021.2.3,59.96677332372562,
right,go,2,0,2,0,4,4,28,4,978.5045690536499,None,1,0.30124497413635254,978.5045690536499,None,978.9321339130402,None,979.912211894989,980.2610030174255,979.912211894989,980.2610030174255,978.9321339130402,None,978.9321339130402,None,978.9321339130402,None,-1,-1,1,True,314.7621154785156,252.90274620056152,right,981.3977680206299,None,pp_14,icub,clamp,2021_Dec_23_1310,exp,2021.2.3,59.96677332372562,
left,stop,2,0,2,0,4,5,29,2,981.9108810424805,None,1,0.44135308265686035,981.9108810424805,None,982.4551498889923,None,983.4559240341187,983.7784519195557,983.4559240341187,983.7784519195557,982.4551498889923,None,982.4551498889923,None,982.4551498889923,None,150,150,0,True,326.3518810272217,367.642879486084,left,985.0400760173798,None,pp_14,icub,clamp,2021_Dec_23_1310,exp,2021.2.3,59.96677332372562,
left,stop,2,0,2,0,5,0,30,2,985.5487749576569,None,1,1.2173631191253662,985.5487749576569,None,986.8947448730469,None,987.8985419273376,988.2408890724182,987.8985419273376,988.2408890724182,986.8947448730469,None,986.8947448730469,None,986.8947448730469,None,100,150,1,True,349.5950698852539,-1.0,-1,992.1612439155579,None,pp_14,icub,clamp,2021_Dec_23_1310,exp,2021.2.3,59.96677332372562,
left,go,2,0,2,0,5,1,31,1,992.6549570560455,None,1,0.9549188613891602,992.6549570560455,None,993.6897399425507,None,994.6619398593903,995.0196380615234,994.6619398593903,995.0196380615234,993.6897399425507,None,993.6897399425507,None,993.6897399425507,None,-1,-1,1,True,307.65390396118164,466.57729148864746,left,996.3667349815369,None,pp_14,icub,clamp,2021_Dec_23_1310,exp,2021.2.3,59.96677332372562,
left,go,2,0,2,0,5,2,32,1,996.8844649791718,None,1,0.8576641082763672,996.8844649791718,None,997.8513810634613,None,998.8535468578339,999.1990420818329,998.8535468578339,999.1990420818329,997.8513810634613,None,997.8513810634613,None,997.8513810634613,None,-1,-1,1,True,385.5748176574707,450.7017135620117,left,1000.5640959739685,None,pp_14,icub,clamp,2021_Dec_23_1310,exp,2021.2.3,59.96677332372562,
right,stop,2,0,2,0,5,3,33,5,1001.0862100124359,None,1,0.5186920166015625,1001.0862100124359,None,1001.690484046936,None,1002.6853718757629,1003.0461058616638,1002.6853718757629,1003.0461058616638,1001.690484046936,None,1001.690484046936,None,1001.690484046936,None,150,150,0,True,327.59690284729004,380.8157444000244,right,1004.2765600681305,None,pp_14,icub,clamp,2021_Dec_23_1310,exp,2021.2.3,59.96677332372562,
right,go,2,0,2,0,5,4,34,3,1004.7934820652008,None,1,0.556663990020752,1004.7934820652008,None,1005.460207939148,None,1006.4733529090881,1006.8311738967896,1006.4733529090881,1006.8311738967896,1005.460207939148,None,1005.460207939148,None,1005.460207939148,None,-1,-1,1,True,416.1670207977295,353.1675338745117,right,1008.1412169933319,None,pp_14,icub,clamp,2021_Dec_23_1310,exp,2021.2.3,59.96677332372562,
left,stop,2,0,2,0,5,5,35,2,1008.6454119682312,None,1,0.30568814277648926,1008.6454119682312,None,1009.0677049160004,None,1010.0898599624634,1010.437586069107,1010.0898599624634,1010.437586069107,1009.0677049160004,None,1009.0677049160004,None,1009.0677049160004,None,150,100,1,True,298.6321449279785,-1.0,-1,1014.2680509090424,None,pp_14,icub,clamp,2021_Dec_23_1310,exp,2021.2.3,59.96677332372562,
right,go,2,0,2,0,6,0,36,4,1014.7998290061951,None,1,0.3932340145111084,1014.7998290061951,None,1015.2873990535736,None,1016.2677850723267,1016.6239268779755,1016.2677850723267,1016.6239268779755,1015.2873990535736,None,1015.2873990535736,None,1015.2873990535736,None,-1,-1,1,True,294.88253593444824,509.9215507507324,right,1017.9695088863373,None,pp_14,icub,clamp,2021_Dec_23_1310,exp,2021.2.3,59.96677332372562,
left,stop,2,0,2,0,6,1,37,2,1018.4871249198914,None,1,0.39304089546203613,1018.4871249198914,None,1018.9605898857117,None,1019.9951219558716,1020.3334109783173,1019.9951219558716,1020.3334109783173,1018.9605898857117,None,1018.9605898857117,None,1018.9605898857117,None,200,100,1,True,319.90742683410645,-1.0,-1,1024.169898033142,None,pp_14,icub,clamp,2021_Dec_23_1310,exp,2021.2.3,59.96677332372562,
right,go,2,0,2,0,6,2,38,4,1024.702194929123,None,1,0.47853899002075195,1024.702194929123,None,1025.314344882965,None,1026.2880990505219,1026.657544851303,1026.2880990505219,1026.657544851303,1025.314344882965,None,1025.314344882965,None,1025.314344882965,None,-1,-1,1,True,319.2572593688965,307.14917182922363,right,1027.8155229091644,None,pp_14,icub,clamp,2021_Dec_23_1310,exp,2021.2.3,59.96677332372562,
right,stop,2,0,2,0,6,3,39,5,1028.3315980434418,None,1,0.5273540019989014,1028.3315980434418,None,1028.9343619346619,None,1029.9549510478973,1030.3020498752594,1029.9549510478973,1030.3020498752594,1028.9343619346619,None,1028.9343619346619,None,1028.9343619346619,None,250,100,0,True,343.3704376220703,348.0339050292969,right,1031.5395538806915,None,pp_14,icub,clamp,2021_Dec_23_1310,exp,2021.2.3,59.96677332372562,
left,go,2,0,2,0,6,4,40,0,1032.047425031662,None,1,0.39675402641296387,1032.047425031662,None,1032.5295898914337,None,1033.5290930271149,1033.872209072113,1033.5290930271149,1033.872209072113,1032.5295898914337,None,1032.5295898914337,None,1032.5295898914337,None,-1,-1,1,True,440.8595561981201,408.83731842041016,left,1035.2875289916992,None,pp_14,icub,clamp,2021_Dec_23_1310,exp,2021.2.3,59.96677332372562,
right,go,2,0,2,0,6,5,41,3,1035.8091909885406,None,1,0.4505269527435303,1035.8091909885406,None,1036.353982925415,None,1037.3519458770752,1037.6845948696136,1037.3519458770752,1037.6845948696136,1036.353982925415,None,1036.353982925415,None,1036.353982925415,None,,,0,False,3000.7522106170654,-1.0,-1,1041.2612459659576,None,pp_14,icub,clamp,2021_Dec_23_1310,exp,2021.2.3,59.96677332372562,
right,stop,2,0,2,0,7,0,42,5,1041.7546339035034,None,1,0.7393381595611572,1041.7546339035034,None,1042.6029710769653,None,1043.6164910793304,1043.9677770137787,1043.6164910793304,1043.9677770137787,1042.6029710769653,None,1042.6029710769653,None,1042.6029710769653,None,250,50,0,True,390.95568656921387,252.56872177124023,right,1045.1399688720703,None,pp_14,icub,clamp,2021_Dec_23_1310,exp,2021.2.3,59.96677332372562,
right,go,2,0,2,0,7,1,43,4,1045.663918018341,None,1,0.4969818592071533,1045.663918018341,None,1046.2646479606628,None,1047.285143852234,1047.6425700187683,1047.285143852234,1047.6425700187683,1046.2646479606628,None,1046.2646479606628,None,1046.2646479606628,None,-1,-1,1,True,334.26380157470703,425.5235195159912,right,1048.939442873001,None,pp_14,icub,clamp,2021_Dec_23_1310,exp,2021.2.3,59.96677332372562,
left,go,2,0,2,0,7,2,44,0,1049.4506180286407,None,1,0.30108213424682617,1049.4506180286407,None,1049.8670618534088,None,1050.8984730243683,1051.2325310707092,1050.8984730243683,1051.2325310707092,1049.8670618534088,None,1049.8670618534088,None,1049.8670618534088,None,-1,-1,1,True,316.30945205688477,368.4501647949219,left,1052.4495558738708,None,pp_14,icub,clamp,2021_Dec_23_1310,exp,2021.2.3,59.96677332372562,
left,go,2,0,2,0,7,3,45,0,1052.9525640010834,None,1,0.48899102210998535,1052.9525640010834,None,1053.538668870926,None,1054.5414869785309,1054.8647890090942,1054.5414869785309,1054.8647890090942,1053.538668870926,None,1053.538668870926,None,1053.538668870926,None,-1,-1,1,True,350.8105278015137,460.8180522918701,left,1056.2436320781708,None,pp_14,icub,clamp,2021_Dec_23_1310,exp,2021.2.3,59.96677332372562,
left,go,2,0,2,0,7,4,46,1,1056.759430885315,None,1,0.33643102645874023,1056.759430885315,None,1057.181228876114,None,1058.1850340366364,1058.5333800315857,1058.1850340366364,1058.5333800315857,1057.181228876114,None,1057.181228876114,None,1057.181228876114,None,-1,-1,1,True,352.7417182922363,388.8881206512451,left,1059.7989690303802,None,pp_14,icub,clamp,2021_Dec_23_1310,exp,2021.2.3,59.96677332372562,
right,go,2,0,2,0,7,5,47,4,1060.3172018527985,None,1,0.5438230037689209,1060.3172018527985,None,1060.9810240268707,None,1061.9783520698547,1062.338896036148,1061.9783520698547,1062.338896036148,1060.9810240268707,None,1060.9810240268707,None,1060.9810240268707,None,-1,-1,1,True,358.9925765991211,187.66450881958008,right,1063.4136390686035,None,pp_14,icub,clamp,2021_Dec_23_1310,exp,2021.2.3,59.96677332372562,
left,go,2,0,2,0,8,0,48,0,1063.9271130561829,None,1,0.4405519962310791,1063.9271130561829,None,1064.4682149887085,None,1065.4582090377808,1065.8147180080414,1065.4582090377808,1065.8147180080414,1064.4682149887085,None,1064.4682149887085,None,1064.4682149887085,None,-1,-1,1,True,389.5862102508545,322.5061893463135,left,1067.086394071579,None,pp_14,icub,clamp,2021_Dec_23_1310,exp,2021.2.3,59.96677332372562,
right,go,2,0,2,0,8,1,49,4,1067.599231004715,None,1,0.22945594787597656,1067.599231004715,None,1067.9518868923187,None,1068.9662010669708,1069.310702085495,1068.9662010669708,1069.310702085495,1067.9518868923187,None,1067.9518868923187,None,1067.9518868923187,None,-1,-1,1,True,348.6299514770508,291.6133403778076,right,1070.4721419811249,None,pp_14,icub,clamp,2021_Dec_23_1310,exp,2021.2.3,59.96677332372562,
right,go,2,0,2,0,8,2,50,3,1070.9917509555817,None,1,0.22322916984558105,1070.9917509555817,None,1071.285348892212,None,1072.298194885254,1072.6591930389404,1072.298194885254,1072.6591930389404,1071.285348892212,None,1071.285348892212,None,1071.285348892212,None,-1,-1,1,True,309.91625785827637,378.5724639892578,right,1073.8772768974304,None,pp_14,icub,clamp,2021_Dec_23_1310,exp,2021.2.3,59.96677332372562,
right,go,2,0,2,0,8,3,51,3,1074.3989219665527,None,1,0.24083900451660156,1074.3989219665527,None,1074.7550928592682,None,1075.777822971344,1076.1427319049835,1075.777822971344,1076.1427319049835,1074.7550928592682,None,1074.7550928592682,None,1074.7550928592682,None,-1,-1,1,True,319.7672367095947,290.5843257904053,right,1077.2643270492554,None,pp_14,icub,clamp,2021_Dec_23_1310,exp,2021.2.3,59.96677332372562,
left,go,2,0,2,0,8,4,52,0,1077.7917249202728,None,1,0.24123501777648926,1077.7917249202728,None,1078.1477448940277,None,1079.1565339565277,1079.4777128696442,1079.1565339565277,1079.4777128696442,1078.1477448940277,None,1078.1477448940277,None,1078.1477448940277,None,-1,-1,1,True,375.5075931549072,367.60687828063965,left,1080.7966129779816,None,pp_14,icub,clamp,2021_Dec_23_1310,exp,2021.2.3,59.96677332372562,
right,go,2,0,2,0,8,5,53,4,1081.302160024643,None,1,0.7255711555480957,1081.302160024643,None,1082.152055978775,None,1083.1462240219116,1083.503783941269,1083.1462240219116,1083.503783941269,1082.152055978775,None,1082.152055978775,None,1082.152055978775,None,-1,-1,1,True,353.41811180114746,418.6239242553711,right,1084.801372051239,None,pp_14,icub,clamp,2021_Dec_23_1310,exp,2021.2.3,59.96677332372562,
left,go,2,0,2,0,9,0,54,0,1085.3185648918152,None,1,0.6564338207244873,1085.3185648918152,None,1086.0506110191345,None,1087.0796780586243,1087.4497928619385,1087.0796780586243,1087.4497928619385,1086.0506110191345,None,1086.0506110191345,None,1086.0506110191345,None,-1,-1,1,True,419.4011688232422,329.80823516845703,left,1088.6890659332275,None,pp_14,icub,clamp,2021_Dec_23_1310,exp,2021.2.3,59.96677332372562,
left,go,2,0,2,0,9,1,55,1,1089.1961810588837,None,1,0.5374939441680908,1089.1961810588837,None,1089.8619408607483,None,1090.868469953537,1091.2181868553162,1090.868469953537,1091.2181868553162,1089.8619408607483,None,1089.8619408607483,None,1089.8619408607483,None,-1,-1,1,True,350.65531730651855,381.2577724456787,left,1092.4721870422363,None,pp_14,icub,clamp,2021_Dec_23_1310,exp,2021.2.3,59.96677332372562,
left,go,2,0,2,0,9,2,56,1,1092.9778339862823,None,1,1.0756170749664307,1092.9778339862823,None,1094.1440999507904,None,1095.1591510772705,1095.5255479812622,1095.1591510772705,1095.5255479812622,1094.1440999507904,None,1094.1440999507904,None,1094.1440999507904,None,-1,-1,1,True,363.1727695465088,400.1283645629883,left,1096.7798988819122,None,pp_14,icub,clamp,2021_Dec_23_1310,exp,2021.2.3,59.96677332372562,
left,go,2,0,2,0,9,3,57,0,1097.2949669361115,None,1,0.2829780578613281,1097.2949669361115,None,1097.7108800411224,None,1098.727607011795,1099.0638990402222,1098.727607011795,1099.0638990402222,1097.7108800411224,None,1097.7108800411224,None,1097.7108800411224,None,-1,-1,1,True,382.2915554046631,470.2613353729248,left,1100.464117050171,None,pp_14,icub,clamp,2021_Dec_23_1310,exp,2021.2.3,59.96677332372562,
left,stop,2,0,2,0,9,4,58,2,1100.9850280284882,None,1,0.5664191246032715,1100.9850280284882,None,1101.6521360874176,None,1102.6441349983215,1102.9881479740143,1102.6441349983215,1102.9881479740143,1101.6521360874176,None,1101.6521360874176,None,1101.6521360874176,None,250,0,0,True,386.51371002197266,431.05196952819824,left,1104.3693490028381,None,pp_14,icub,clamp,2021_Dec_23_1310,exp,2021.2.3,59.96677332372562,
right,stop,2,0,2,0,9,5,59,5,1104.875174999237,None,1,0.7713980674743652,1104.875174999237,None,1105.727262020111,None,1106.7449669837952,1107.0723259449005,1106.7449669837952,1107.0723259449005,1105.727262020111,None,1105.727262020111,None,1105.727262020111,None,200,0,1,True,378.3738613128662,-1.0,-1,1111.0126910209656,None,pp_14,icub,clamp,2021_Dec_23_1310,exp,2021.2.3,59.96677332372562,
right,stop,2,0,2,0,10,0,60,5,1111.5365149974823,None,1,0.6717319488525391,1111.5365149974823,None,1112.3344099521637,None,1113.3135108947754,1113.6757469177246,1113.3135108947754,1113.6757469177246,1112.3344099521637,None,1112.3344099521637,None,1112.3344099521637,None,200,50,1,True,340.8639430999756,-1.0,-1,1117.548625946045,None,pp_14,icub,clamp,2021_Dec_23_1310,exp,2021.2.3,59.96677332372562,
left,stop,2,0,2,0,10,1,61,2,1118.0801260471344,None,1,0.7601609230041504,1118.0801260471344,None,1118.9413499832153,None,1119.9486770629883,1120.3110990524292,1119.9486770629883,1120.3110990524292,1118.9413499832153,None,1118.9413499832153,None,1118.9413499832153,None,200,100,0,True,370.49078941345215,283.2472324371338,left,1121.5009808540344,None,pp_14,icub,clamp,2021_Dec_23_1310,exp,2021.2.3,59.96677332372562,
left,stop,2,0,2,0,10,2,62,2,1122.011610031128,None,1,0.5671701431274414,1122.011610031128,None,1122.6784698963165,None,1123.6730790138245,1124.0198159217834,1123.6730790138245,1124.0198159217834,1122.6784698963165,None,1122.6784698963165,None,1122.6784698963165,None,150,100,1,True,375.95582008361816,-1.0,-1,1127.9692978858948,None,pp_14,icub,clamp,2021_Dec_23_1310,exp,2021.2.3,59.96677332372562,
right,stop,2,0,2,0,10,3,63,5,1128.4631769657135,None,1,1.5819530487060547,1128.4631769657135,None,1130.125727891922,None,1131.112436056137,1131.4639039039612,1131.112436056137,1131.4639039039612,1130.125727891922,None,1130.125727891922,None,1130.125727891922,None,200,100,1,True,308.8421821594238,-1.0,-1,1135.298938035965,None,pp_14,icub,clamp,2021_Dec_23_1310,exp,2021.2.3,59.96677332372562,
right,go,2,0,2,0,10,4,64,3,1135.8323068618774,None,1,0.6287789344787598,1135.8323068618774,None,1136.5690789222717,None,1137.5475399494171,1137.9125299453735,1137.5475399494171,1137.9125299453735,1136.5690789222717,None,1136.5690789222717,None,1136.5690789222717,None,-1,-1,1,True,387.9539966583252,379.6975612640381,right,1139.2111189365387,None,pp_14,icub,clamp,2021_Dec_23_1310,exp,2021.2.3,59.96677332372562,
right,go,2,0,2,0,10,5,65,4,1139.7216670513153,None,1,0.5128810405731201,1139.7216670513153,None,1140.3248949050903,None,1141.3289539813995,1141.689346075058,1141.3289539813995,1141.689346075058,1140.3248949050903,None,1140.3248949050903,None,1140.3248949050903,None,-1,-1,1,True,431.94103240966797,320.31893730163574,right,1142.9713518619537,None,pp_14,icub,clamp,2021_Dec_23_1310,exp,2021.2.3,59.96677332372562,
left,stop,2,0,2,0,11,0,66,2,1143.492264032364,None,1,0.8753550052642822,1143.492264032364,None,1144.4680490493774,None,1145.4742980003357,1145.8243260383606,1145.4742980003357,1145.8243260383606,1144.4680490493774,None,1144.4680490493774,None,1144.4680490493774,None,200,150,0,True,353.09910774230957,341.8128490447998,left,1147.0509369373322,None,pp_14,icub,clamp,2021_Dec_23_1310,exp,2021.2.3,59.96677332372562,
right,go,2,0,2,0,11,1,67,3,1147.5525879859924,None,1,0.5071310997009277,1147.5525879859924,None,1148.1611080169678,None,1149.1646208763123,1149.5150170326233,1149.1646208763123,1149.5150170326233,1148.1611080169678,None,1148.1611080169678,None,1148.1611080169678,None,-1,-1,1,True,490.6806945800781,491.18638038635254,right,1151.0386440753937,None,pp_14,icub,clamp,2021_Dec_23_1310,exp,2021.2.3,59.96677332372562,
right,stop,2,0,2,0,11,2,68,5,1151.5351719856262,None,1,0.5661509037017822,1151.5351719856262,None,1152.2088980674744,None,1153.207601070404,1153.5581600666046,1153.207601070404,1153.5581600666046,1152.2088980674744,None,1152.2088980674744,None,1152.2088980674744,None,150,150,1,True,424.0901470184326,-1.0,-1,1157.509073972702,None,pp_14,icub,clamp,2021_Dec_23_1310,exp,2021.2.3,59.96677332372562,
left,go,2,0,2,0,11,3,69,0,1158.0429968833923,None,1,0.5400009155273438,1158.0429968833923,None,1158.7168228626251,None,1159.6974968910217,1160.045714855194,1159.6974968910217,1160.045714855194,1158.7168228626251,None,1158.7168228626251,None,1158.7168228626251,None,-1,-1,1,True,338.90247344970703,359.1790199279785,left,1161.3150188922882,None,pp_14,icub,clamp,2021_Dec_23_1310,exp,2021.2.3,59.96677332372562,
right,stop,2,0,2,0,11,4,70,5,1161.819077014923,None,1,0.8624260425567627,1161.819077014923,None,1162.795301914215,None,1163.8280220031738,1164.1827268600464,1163.8280220031738,1164.1827268600464,1162.795301914215,None,1162.795301914215,None,1162.795301914215,None,150,200,0,True,303.9536476135254,373.73805046081543,right,1165.3544540405273,None,pp_14,icub,clamp,2021_Dec_23_1310,exp,2021.2.3,59.96677332372562,
left,go,2,0,2,0,11,5,71,1,1165.8613829612732,None,1,0.5222799777984619,1165.8613829612732,None,1166.469013929367,None,1167.4848358631134,1167.8466289043427,1167.4848358631134,1167.8466289043427,1166.469013929367,None,1166.469013929367,None,1166.469013929367,None,-1,-1,1,True,312.345027923584,443.7122344970703,left,1169.1313390731812,None,pp_14,icub,clamp,2021_Dec_23_1310,exp,2021.2.3,59.96677332372562,
right,go,2,0,2,0,12,0,72,3,1169.6520788669586,None,1,42.822327852249146,1169.6520788669586,None,1212.6069340705872,None,1213.6322689056396,1213.9777739048004,1213.6322689056396,1213.9777739048004,1212.6069340705872,None,1212.6069340705872,None,1212.6069340705872,None,-1,-1,1,True,335.9675407409668,587.4369144439697,right,1215.428629875183,None,pp_14,icub,clamp,2021_Dec_23_1310,exp,2021.2.3,59.96677332372562,
left,go,2,0,2,0,12,1,73,1,1215.9359080791473,None,1,3.332413911819458,1215.9359080791473,None,1219.3881208896637,None,1220.4177799224854,1220.7801249027252,1220.4177799224854,1220.7801249027252,1219.3881208896637,None,1219.3881208896637,None,1219.3881208896637,None,-1,-1,1,True,268.9075469970703,434.4804286956787,left,1221.9706058502197,None,pp_14,icub,clamp,2021_Dec_23_1310,exp,2021.2.3,59.96677332372562,
right,go,2,0,2,0,12,2,74,3,1222.487487077713,None,1,0.6754400730133057,1222.487487077713,None,1223.2698180675507,None,1224.2993159294128,1224.665030002594,1224.2993159294128,1224.665030002594,1223.2698180675507,None,1223.2698180675507,None,1223.2698180675507,None,-1,-1,1,True,313.43722343444824,450.5035877227783,right,1225.915365934372,None,pp_14,icub,clamp,2021_Dec_23_1310,exp,2021.2.3,59.96677332372562,
right,stop,2,0,2,0,12,3,75,5,1226.413328886032,None,1,0.326854944229126,1226.413328886032,None,1226.8308470249176,None,1227.8333978652954,1228.1930248737335,1227.8333978652954,1228.1930248737335,1226.8308470249176,None,1226.8308470249176,None,1226.8308470249176,None,150,150,0,True,295.1045036315918,249.5570182800293,right,1229.2730040550232,None,pp_14,icub,clamp,2021_Dec_23_1310,exp,2021.2.3,59.96677332372562,
left,go,2,0,2,0,12,4,76,0,1229.7798359394073,None,1,0.48108983039855957,1229.7798359394073,None,1230.3839709758759,None,1231.3827600479126,1231.7362189292908,1231.3827600479126,1231.7362189292908,1230.3839709758759,None,1230.3839709758759,None,1230.3839709758759,None,-1,-1,1,True,321.6204643249512,372.52116203308105,left,1232.967500925064,None,pp_14,icub,clamp,2021_Dec_23_1310,exp,2021.2.3,59.96677332372562,
right,go,2,0,2,0,12,5,77,3,1233.4904170036316,None,1,0.5359940528869629,1233.4904170036316,None,1234.1544420719147,None,1235.166081905365,1235.5335569381714,1235.166081905365,1235.5335569381714,1234.1544420719147,None,1234.1544420719147,None,1234.1544420719147,None,-1,-1,1,True,323.1160640716553,347.9177951812744,right,1236.7349860668182,None,pp_14,icub,clamp,2021_Dec_23_1310,exp,2021.2.3,59.96677332372562,
right,go,3,0,3,0,0,0,0,4,1247.5333569049835,None,1,11.909635066986084,1247.5333569049835,None,1259.5711379051208,None,1260.5687758922577,1260.9196360111237,1260.5687758922577,1260.9196360111237,1259.5711379051208,None,1259.5711379051208,None,1259.5711379051208,None,-1,-1,1,True,248.5339641571045,359.82251167297363,right,1262.0570139884949,None,pp_14,icub,clamp,2021_Dec_23_1310,exp,2021.2.3,59.96677332372562,
right,stop,3,0,3,0,0,1,1,5,1262.5746319293976,None,1,0.686384916305542,1262.5746319293976,None,1263.3676800727844,None,1264.3605308532715,1264.7205610275269,1264.3605308532715,1264.7205610275269,1263.3676800727844,None,1263.3676800727844,None,1263.3676800727844,None,150,100,1,True,94.14196014404297,-1.0,-1,1268.344964981079,None,pp_14,icub,clamp,2021_Dec_23_1310,exp,2021.2.3,59.96677332372562,
right,stop,3,0,3,0,0,2,2,5,1268.8784110546112,None,1,0.7381329536437988,1268.8784110546112,None,1269.7371709346771,None,1270.7169618606567,1271.0616810321808,1270.7169618606567,1271.0616810321808,1269.7371709346771,None,1269.7371709346771,None,1269.7371709346771,None,150,150,1,True,277.1265506744385,-1.0,-1,1274.9010789394379,None,pp_14,icub,clamp,2021_Dec_23_1310,exp,2021.2.3,59.96677332372562,
right,go,3,0,3,0,0,3,3,3,1275.4326119422913,None,1,23.38982105255127,1275.4326119422913,None,1298.9329669475555,None,1299.907329082489,1300.2631800174713,1299.907329082489,1300.2631800174713,1298.9329669475555,None,1298.9329669475555,None,1298.9329669475555,None,-1,-1,1,True,310.711145401001,357.7282428741455,right,1301.496659040451,None,pp_14,icub,clamp,2021_Dec_23_1310,exp,2021.2.3,59.96677332372562,
left,go,3,0,3,0,0,4,4,1,1302.00172996521,None,1,0.5828571319580078,1302.00172996521,None,1302.670403957367,None,1303.658432006836,1304.0140109062195,1303.658432006836,1304.0140109062195,1302.670403957367,None,1302.670403957367,None,1302.670403957367,None,-1,-1,1,True,333.8806629180908,384.5648765563965,left,1305.2673869132996,None,pp_14,icub,clamp,2021_Dec_23_1310,exp,2021.2.3,59.96677332372562,
left,go,3,0,3,0,0,5,5,0,1305.7754080295563,None,1,0.5434248447418213,1305.7754080295563,None,1306.4341039657593,None,1307.4275069236755,1307.789440870285,1307.4275069236755,1307.789440870285,1306.4341039657593,None,1306.4341039657593,None,1306.4341039657593,None,-1,-1,1,True,317.94118881225586,408.84900093078613,left,1309.0452389717102,None,pp_14,icub,clamp,2021_Dec_23_1310,exp,2021.2.3,59.96677332372562,
right,stop,3,0,3,0,1,0,6,5,1309.5557010173798,None,1,0.515117883682251,1309.5557010173798,None,1310.1617300510406,None,1311.1513800621033,1311.5019850730896,1311.1513800621033,1311.5019850730896,1310.1617300510406,None,1310.1617300510406,None,1310.1617300510406,None,150,200,1,True,281.97193145751953,-1.0,-1,1315.342295885086,None,pp_14,icub,clamp,2021_Dec_23_1310,exp,2021.2.3,59.96677332372562,
left,go,3,0,3,0,1,1,7,0,1315.87597990036,None,1,1.1613738536834717,1315.87597990036,None,1317.1685810089111,None,1318.165729045868,1318.5215809345245,1318.165729045868,1318.5215809345245,1317.1685810089111,None,1317.1685810089111,None,1317.1685810089111,None,-1,-1,1,True,361.85646057128906,455.2876949310303,left,1319.8704190254211,None,pp_14,icub,clamp,2021_Dec_23_1310,exp,2021.2.3,59.96677332372562,
right,go,3,0,3,0,1,2,8,4,1320.3880760669708,None,1,0.40654706954956055,1320.3880760669708,None,1320.9286918640137,None,1321.9505069255829,1322.3064548969269,1321.9505069255829,1322.3064548969269,1320.9286918640137,None,1320.9286918640137,None,1320.9286918640137,None,-1,-1,1,True,305.5591583251953,433.0472946166992,right,1323.577642917633,None,pp_14,icub,clamp,2021_Dec_23_1310,exp,2021.2.3,59.96677332372562,
right,stop,3,0,3,0,1,3,9,5,1324.0924670696259,None,1,1.0417191982269287,1324.0924670696259,None,1325.253247976303,None,1326.2848160266876,1326.650379896164,1326.2848160266876,1326.650379896164,1325.253247976303,None,1325.253247976303,None,1325.253247976303,None,150,250,0,True,333.2850933074951,290.4648780822754,right,1327.7816200256348,None,pp_14,icub,clamp,2021_Dec_23_1310,exp,2021.2.3,59.96677332372562,
left,go,3,0,3,0,1,4,10,1,1328.297266960144,None,1,0.5663890838623047,1328.297266960144,None,1328.9650979042053,None,1329.9806518554688,1330.3433589935303,1329.9806518554688,1330.3433589935303,1328.9650979042053,None,1328.9650979042053,None,1328.9650979042053,None,-1,-1,1,True,327.6801109313965,510.4517936706543,left,1331.713259935379,None,pp_14,icub,clamp,2021_Dec_23_1310,exp,2021.2.3,59.96677332372562,
right,stop,3,0,3,0,1,5,11,5,1332.232948064804,None,1,0.5548839569091797,1332.232948064804,None,1332.8990910053253,None,1333.902438879013,1334.2537519931793,1333.902438879013,1334.2537519931793,1332.8990910053253,None,1332.8990910053253,None,1332.8990910053253,None,150,200,0,True,369.0507411956787,338.69409561157227,right,1335.4962990283966,None,pp_14,icub,clamp,2021_Dec_23_1310,exp,2021.2.3,59.96677332372562,
