Holder,Action,blocks.thisRepN,blocks.thisTrialN,blocks.thisN,blocks.thisIndex,trials.thisRepN,trials.thisTrialN,trials.thisN,trials.thisIndex,start_msg.started,start_msg.stopped,RespButton_start_trial.keys,RespButton_start_trial.rt,RespButton_start_trial.started,RespButton_start_trial.stopped,GREEN.started,GREEN.stopped,LEFT_RED.started,LEFT_RED.stopped,RIGHT_RED.started,RIGHT_RED.stopped,LEFT_CIRCLE.started,LEFT_CIRCLE.stopped,CENTER_CIRCLE.started,CENTER_CIRCLE.stopped,RIGHT_CIRCLE.started,RIGHT_CIRCLE.stopped,SOUND_DELAY_MS_LEFT,SOUND_DELAY_MS_RIGHT,CORRECT,VALIDITY,RELEASE_TIME,TOUCH_TIME,BOTTLE_RESPONSE_POSITION,text.started,text.stopped,pid,left_position,right_position,date,expName,psychopyVersion,frameRate,
left,go,0,0,0,0,0,0,0,1,36.6175057888031,None,1,24.85576891899109,36.6175057888031,None,61.597986936569214,None,62.60122799873352,62.95169401168823,62.60122799873352,62.95169401168823,61.597986936569214,None,61.597986936569214,None,61.597986936569214,None,-1,-1,1,True,345.57461738586426,591.1924839019775,left,64.42774701118469,None,pp_19b,clamp,icub,2022_Jan_10_0924,exp,2021.2.3,59.96463000902121,
left,go,0,0,0,0,0,1,1,0,64.92978382110596,None,1,0.658668041229248,64.92978382110596,None,65.71698784828186,None,66.74945187568665,67.1063928604126,66.74945187568665,67.1063928604126,65.71698784828186,None,65.71698784828186,None,65.71698784828186,None,-1,-1,1,True,345.37649154663086,538.1035804748535,left,68.47983884811401,None,pp_19b,clamp,icub,2022_Jan_10_0924,exp,2021.2.3,59.96463000902121,
left,go,0,0,0,0,0,2,2,0,68.9943618774414,None,1,0.5409040451049805,68.9943618774414,None,69.65972685813904,None,70.67760300636292,71.03406286239624,70.67760300636292,71.03406286239624,69.65972685813904,None,69.65972685813904,None,69.65972685813904,None,-1,-1,1,True,458.2376480102539,559.6792697906494,left,72.56553792953491,None,pp_19b,clamp,icub,2022_Jan_10_0924,exp,2021.2.3,59.96463000902121,
left,go,0,0,0,0,0,3,3,0,73.07208681106567,None,1,0.44724106788635254,73.07208681106567,None,73.61259388923645,None,74.62761688232422,74.97735691070557,74.62761688232422,74.97735691070557,73.61259388923645,None,73.61259388923645,None,73.61259388923645,None,-1,-1,1,True,317.5690174102783,604.0036678314209,left,76.43052887916565,None,pp_19b,clamp,icub,2022_Jan_10_0924,exp,2021.2.3,59.96463000902121,
right,go,0,0,0,0,0,4,4,3,76.9316828250885,None,1,0.4327549934387207,76.9316828250885,None,77.47183990478516,None,78.46421599388123,78.82247686386108,78.46421599388123,78.82247686386108,77.47183990478516,None,77.47183990478516,None,77.47183990478516,None,-1,-1,1,True,168.7774658203125,405.3769111633301,right,79.92885899543762,None,pp_19b,clamp,icub,2022_Jan_10_0924,exp,2021.2.3,59.96463000902121,
left,go,0,0,0,0,0,5,5,1,80.43787479400635,None,1,0.5924789905548096,80.43787479400635,None,81.10552883148193,None,82.13017082214355,82.48416185379028,82.13017082214355,82.48416185379028,81.10552883148193,None,81.10552883148193,None,81.10552883148193,None,-1,-1,1,True,297.9774475097656,594.4929122924805,left,83.89721083641052,None,pp_19b,clamp,icub,2022_Jan_10_0924,exp,2021.2.3,59.96463000902121,
left,stop,0,0,0,0,1,0,6,2,84.42969584465027,None,1,0.37860107421875,84.42969584465027,None,84.90893197059631,None,85.94076085090637,86.28485798835754,85.94076085090637,86.28485798835754,84.90893197059631,None,84.90893197059631,None,84.90893197059631,None,,,0,False,-1.0,-1.0,-1,86.46105098724365,None,pp_19b,clamp,icub,2022_Jan_10_0924,exp,2021.2.3,59.96463000902121,
right,go,0,0,0,0,1,1,7,3,86.99041485786438,None,1,0.612375020980835,86.99041485786438,None,87.72536587715149,None,88.70482087135315,89.07041001319885,88.70482087135315,89.07041001319885,87.72536587715149,None,87.72536587715149,None,87.72536587715149,None,-1,-1,1,True,294.73042488098145,603.3046245574951,right,90.49580383300781,None,pp_19b,clamp,icub,2022_Jan_10_0924,exp,2021.2.3,59.96463000902121,
right,stop,0,0,0,0,1,2,8,5,91.00590491294861,None,1,0.540424108505249,91.00590491294861,None,91.66931891441345,None,92.68788385391235,93.03213381767273,92.68788385391235,93.03213381767273,91.66931891441345,None,91.66931891441345,None,91.66931891441345,None,500,500,0,True,230.98492622375488,582.0620059967041,right,94.37270998954773,None,pp_19b,clamp,icub,2022_Jan_10_0924,exp,2021.2.3,59.96463000902121,
left,stop,0,0,0,0,1,3,9,2,94.89493989944458,None,1,0.597383975982666,94.89493989944458,None,95.61998200416565,None,96.61536598205566,96.96807384490967,96.61536598205566,96.96807384490967,95.61998200416565,None,95.61998200416565,None,95.61998200416565,None,500,450,0,True,167.10448265075684,631.4809322357178,left,98.29044198989868,None,pp_19b,clamp,icub,2022_Jan_10_0924,exp,2021.2.3,59.96463000902121,
right,stop,0,0,0,0,1,4,10,5,98.8098578453064,None,1,0.323350191116333,98.8098578453064,None,99.22698092460632,None,100.24708485603333,100.60055899620056,100.24708485603333,100.60055899620056,99.22698092460632,None,99.22698092460632,None,99.22698092460632,None,450,450,0,True,265.74182510375977,559.4239234924316,right,101.95054483413696,None,pp_19b,clamp,icub,2022_Jan_10_0924,exp,2021.2.3,59.96463000902121,
right,stop,0,0,0,0,1,5,11,5,102.48672699928284,None,1,0.5347049236297607,102.48672699928284,None,103.14999294281006,None,104.1477108001709,104.49405097961426,104.1477108001709,104.49405097961426,103.14999294281006,None,103.14999294281006,None,103.14999294281006,None,450,400,1,True,245.63860893249512,-1.0,-1,108.3037588596344,None,pp_19b,clamp,icub,2022_Jan_10_0924,exp,2021.2.3,59.96463000902121,
right,stop,0,0,0,0,2,0,12,5,108.79667782783508,None,1,2.7300140857696533,108.79667782783508,None,111.64333391189575,None,112.62294888496399,112.96708583831787,112.62294888496399,112.96708583831787,111.64333391189575,None,111.64333391189575,None,111.64333391189575,None,450,450,1,True,509.8915100097656,-1.0,-1,117.0267858505249,None,pp_19b,clamp,icub,2022_Jan_10_0924,exp,2021.2.3,59.96463000902121,
left,go,0,0,0,0,2,1,13,0,117.55770683288574,None,1,1.1430010795593262,117.55770683288574,None,118.78545498847961,None,119.76156997680664,120.11628985404968,119.76156997680664,120.11628985404968,118.78545498847961,None,118.78545498847961,None,118.78545498847961,None,-1,-1,1,True,616.2896156311035,572.9575157165527,left,121.86963391304016,None,pp_19b,clamp,icub,2022_Jan_10_0924,exp,2021.2.3,59.96463000902121,
left,stop,0,0,0,0,2,2,14,2,122.38423681259155,None,1,0.4480721950531006,122.38423681259155,None,122.92690896987915,None,123.94104194641113,124.28792190551758,123.94104194641113,124.28792190551758,122.92690896987915,None,122.92690896987915,None,122.92690896987915,None,450,500,1,True,380.2199363708496,-1.0,-1,128.19623279571533,None,pp_19b,clamp,icub,2022_Jan_10_0924,exp,2021.2.3,59.96463000902121,
right,go,0,0,0,0,2,3,15,4,128.72818994522095,None,1,1.4003899097442627,128.72818994522095,None,130.26893401145935,None,131.24269199371338,131.59793186187744,131.24269199371338,131.59793186187744,130.26893401145935,None,130.26893401145935,None,130.26893401145935,None,-1,-1,1,True,330.2791118621826,590.4018878936768,right,133.09016799926758,None,pp_19b,clamp,icub,2022_Jan_10_0924,exp,2021.2.3,59.96463000902121,
left,stop,0,0,0,0,2,4,16,2,133.62289190292358,None,1,0.47194409370422363,133.62289190292358,None,134.22369980812073,None,135.23635578155518,135.59712982177734,135.23635578155518,135.59712982177734,134.22369980812073,None,134.22369980812073,None,134.22369980812073,None,500,500,1,True,263.55934143066406,-1.0,-1,139.37942695617676,None,pp_19b,clamp,icub,2022_Jan_10_0924,exp,2021.2.3,59.96463000902121,
left,go,0,0,0,0,2,5,17,0,139.9101939201355,None,1,1.2963390350341797,139.9101939201355,None,141.32832288742065,None,142.30759596824646,142.66730999946594,142.30759596824646,142.66730999946594,141.32832288742065,None,141.32832288742065,None,141.32832288742065,None,-1,-1,1,True,334.4264030456543,557.910680770874,left,144.09005284309387,None,pp_19b,clamp,icub,2022_Jan_10_0924,exp,2021.2.3,59.96463000902121,
left,stop,0,0,0,0,3,0,18,2,144.60249090194702,None,1,0.4662749767303467,144.60249090194702,None,145.1440818309784,None,146.1700599193573,146.52873492240906,146.1700599193573,146.52873492240906,145.1440818309784,None,145.1440818309784,None,145.1440818309784,None,550,500,0,True,283.1113338470459,587.3985290527344,left,147.9244999885559,None,pp_19b,clamp,icub,2022_Jan_10_0924,exp,2021.2.3,59.96463000902121,
right,go,0,0,0,0,3,1,19,4,148.44302082061768,None,1,1.3589999675750732,148.44302082061768,None,149.88549089431763,None,150.88232398033142,151.2461597919464,150.88232398033142,151.2461597919464,149.88549089431763,None,149.88549089431763,None,149.88549089431763,None,-1,-1,1,True,345.9630012512207,603.7139892578125,right,152.7193739414215,None,pp_19b,clamp,icub,2022_Jan_10_0924,exp,2021.2.3,59.96463000902121,
left,stop,0,0,0,0,3,2,20,2,153.23043298721313,None,1,0.4713008403778076,153.23043298721313,None,153.82968997955322,None,154.822518825531,155.1474359035492,154.822518825531,155.1474359035492,153.82968997955322,None,153.82968997955322,None,153.82968997955322,None,500,500,1,True,254.3787956237793,-1.0,-1,158.97411394119263,None,pp_19b,clamp,icub,2022_Jan_10_0924,exp,2021.2.3,59.96463000902121,
right,go,0,0,0,0,3,3,21,3,159.5047528743744,None,1,0.7477669715881348,159.5047528743744,None,160.36384677886963,None,161.370258808136,161.74127197265625,161.370258808136,161.74127197265625,160.36384677886963,None,160.36384677886963,None,160.36384677886963,None,-1,-1,1,True,236.76109313964844,673.3732223510742,right,163.13996481895447,None,pp_19b,clamp,icub,2022_Jan_10_0924,exp,2021.2.3,59.96463000902121,
right,go,0,0,0,0,3,4,22,4,163.6770157814026,None,1,0.6298239231109619,163.6770157814026,None,164.40828680992126,None,165.4305329322815,165.78174901008606,165.4305329322815,165.78174901008606,164.40828680992126,None,164.40828680992126,None,164.40828680992126,None,-1,-1,1,True,179.75521087646484,603.4467220306396,right,167.07524394989014,None,pp_19b,clamp,icub,2022_Jan_10_0924,exp,2021.2.3,59.96463000902121,
right,stop,0,0,0,0,3,5,23,5,167.58009696006775,None,1,0.707772970199585,167.58009696006775,None,168.36831188201904,None,169.38149499893188,169.7154839038849,169.38149499893188,169.7154839038849,168.36831188201904,None,168.36831188201904,None,168.36831188201904,None,550,500,1,True,434.08656120300293,-1.0,-1,173.69182991981506,None,pp_19b,clamp,icub,2022_Jan_10_0924,exp,2021.2.3,59.96463000902121,
left,go,0,0,0,0,4,0,24,0,174.22171187400818,None,1,0.8297550678253174,174.22171187400818,None,175.1422758102417,None,176.1428928375244,176.51119685173035,176.1428928375244,176.51119685173035,175.1422758102417,None,175.1422758102417,None,175.1422758102417,None,-1,-1,1,True,276.5054702758789,658.6334705352783,left,177.9580979347229,None,pp_19b,clamp,icub,2022_Jan_10_0924,exp,2021.2.3,59.96463000902121,
left,go,0,0,0,0,4,1,25,0,178.4621639251709,None,1,0.41441893577575684,178.4621639251709,None,178.99141597747803,None,180.00680994987488,180.35635781288147,180.00680994987488,180.35635781288147,178.99141597747803,None,178.99141597747803,None,178.99141597747803,None,-1,-1,1,True,194.13161277770996,626.9423961639404,left,181.7060558795929,None,pp_19b,clamp,icub,2022_Jan_10_0924,exp,2021.2.3,59.96463000902121,
right,go,0,0,0,0,4,2,26,4,182.21620392799377,None,1,0.5685789585113525,182.21620392799377,None,182.8654808998108,None,183.87624382972717,184.2025489807129,183.87624382972717,184.2025489807129,182.8654808998108,None,182.8654808998108,None,182.8654808998108,None,-1,-1,1,True,59.46230888366699,582.5076103210449,right,185.41443800926208,None,pp_19b,clamp,icub,2022_Jan_10_0924,exp,2021.2.3,59.96463000902121,
left,go,0,0,0,0,4,3,27,1,185.94460678100586,None,1,0.47009897232055664,185.94460678100586,None,186.54218888282776,None,187.53790187835693,187.89443683624268,187.53790187835693,187.89443683624268,186.54218888282776,None,186.54218888282776,None,186.54218888282776,None,-1,-1,1,True,285.9535217285156,611.5920543670654,left,189.31330585479736,None,pp_19b,clamp,icub,2022_Jan_10_0924,exp,2021.2.3,59.96463000902121,
right,go,0,0,0,0,4,4,28,3,189.80913496017456,None,1,0.33713579177856445,189.80913496017456,None,190.2846348285675,None,191.29198479652405,191.6457118988037,191.29198479652405,191.6457118988037,190.2846348285675,None,190.2846348285675,None,190.2846348285675,None,-1,-1,1,True,244.52805519104004,519.7794437408447,right,192.93900990486145,None,pp_19b,clamp,icub,2022_Jan_10_0924,exp,2021.2.3,59.96463000902121,
left,go,0,0,0,0,4,5,29,1,193.44066095352173,None,1,0.41811203956604004,193.44066095352173,None,193.9819939136505,None,195.01280283927917,195.36980080604553,195.01280283927917,195.36980080604553,193.9819939136505,None,193.9819939136505,None,193.9819939136505,None,-1,-1,1,True,348.93274307250977,573.3208656311035,left,196.7808918952942,None,pp_19b,clamp,icub,2022_Jan_10_0924,exp,2021.2.3,59.96463000902121,
right,go,0,0,0,0,5,0,30,3,197.29721999168396,None,1,0.23453497886657715,197.29721999168396,None,197.6513319015503,None,198.64798092842102,198.98182201385498,198.64798092842102,198.98182201385498,197.6513319015503,None,197.6513319015503,None,197.6513319015503,None,-1,-1,1,True,31.728744506835938,552.2756576538086,right,200.13342380523682,None,pp_19b,clamp,icub,2022_Jan_10_0924,exp,2021.2.3,59.96463000902121,
right,go,0,0,0,0,5,1,31,4,200.66602778434753,None,1,0.33781886100769043,200.66602778434753,None,201.0842249393463,None,202.08059096336365,202.41075587272644,202.08059096336365,202.41075587272644,201.0842249393463,None,201.0842249393463,None,201.0842249393463,None,-1,-1,1,True,319.43726539611816,625.8029937744141,right,203.92818999290466,None,pp_19b,clamp,icub,2022_Jan_10_0924,exp,2021.2.3,59.96463000902121,
right,go,0,0,0,0,5,2,32,4,204.44304585456848,None,1,0.3546431064605713,204.44304585456848,None,204.9208128452301,None,205.9448459148407,206.29590392112732,205.9448459148407,206.29590392112732,204.9208128452301,None,204.9208128452301,None,204.9208128452301,None,-1,-1,1,True,316.6365623474121,574.4538307189941,right,207.71726298332214,None,pp_19b,clamp,icub,2022_Jan_10_0924,exp,2021.2.3,59.96463000902121,
left,go,0,0,0,0,5,3,33,0,208.23765397071838,None,1,0.33171796798706055,208.23765397071838,None,208.65513396263123,None,209.66937279701233,210.02909684181213,209.66937279701233,210.02909684181213,208.65513396263123,None,208.65513396263123,None,208.65513396263123,None,-1,-1,1,True,259.72580909729004,697.3035335540771,left,211.51221585273743,None,pp_19b,clamp,icub,2022_Jan_10_0924,exp,2021.2.3,59.96463000902121,
right,go,0,0,0,0,5,4,34,4,212.0281698703766,None,1,0.23260211944580078,212.0281698703766,None,212.38447380065918,None,213.38379287719727,213.7295799255371,213.38379287719727,213.7295799255371,212.38447380065918,None,212.38447380065918,None,212.38447380065918,None,-1,-1,1,True,292.9253578186035,593.5301780700684,right,215.17807698249817,None,pp_19b,clamp,icub,2022_Jan_10_0924,exp,2021.2.3,59.96463000902121,
left,go,0,0,0,0,5,5,35,0,215.71339178085327,None,1,0.3956298828125,215.71339178085327,None,216.1947968006134,None,217.2088439464569,217.56637287139893,217.2088439464569,217.56637287139893,216.1947968006134,None,216.1947968006134,None,216.1947968006134,None,-1,-1,1,True,169.69943046569824,576.6768455505371,left,218.83903098106384,None,pp_19b,clamp,icub,2022_Jan_10_0924,exp,2021.2.3,59.96463000902121,
right,go,0,0,0,0,6,0,36,4,219.34932780265808,None,1,0.4003159999847412,219.34932780265808,None,219.8299708366394,None,220.83491492271423,221.18019580841064,220.83491492271423,221.18019580841064,219.8299708366394,None,219.8299708366394,None,219.8299708366394,None,-1,-1,1,True,256.23321533203125,548.8595962524414,right,222.5120120048523,None,pp_19b,clamp,icub,2022_Jan_10_0924,exp,2021.2.3,59.96463000902121,
left,stop,0,0,0,0,6,1,37,2,223.03711891174316,None,1,0.45226287841796875,223.03711891174316,None,223.5788598060608,None,224.5785617828369,224.93223786354065,224.5785617828369,224.93223786354065,223.5788598060608,None,223.5788598060608,None,223.5788598060608,None,550,550,0,True,215.9097194671631,602.2353172302246,left,226.2760248184204,None,pp_19b,clamp,icub,2022_Jan_10_0924,exp,2021.2.3,59.96463000902121,
left,go,0,0,0,0,6,2,38,1,226.78817081451416,None,1,1.0944550037384033,226.78817081451416,None,228.00515794754028,None,229.00162291526794,229.3480508327484,229.00162291526794,229.3480508327484,228.00515794754028,None,228.00515794754028,None,228.00515794754028,None,-1,-1,1,True,253.80229949951172,644.2952156066895,left,230.78206491470337,None,pp_19b,clamp,icub,2022_Jan_10_0924,exp,2021.2.3,59.96463000902121,
right,go,0,0,0,0,6,3,39,4,231.2931067943573,None,1,0.37064099311828613,231.2931067943573,None,231.7727677822113,None,232.7845709323883,233.14940690994263,232.7845709323883,233.14940690994263,231.7727677822113,None,231.7727677822113,None,231.7727677822113,None,-1,-1,1,True,83.39643478393555,507.7841281890869,right,234.26863884925842,None,pp_19b,clamp,icub,2022_Jan_10_0924,exp,2021.2.3,59.96463000902121,
right,stop,0,0,0,0,6,4,40,5,234.78637886047363,None,1,0.3813650608062744,234.78637886047363,None,235.26792693138123,None,236.27303886413574,236.63727188110352,236.27303886413574,236.63727188110352,235.26792693138123,None,235.26792693138123,None,235.26792693138123,None,500,550,0,True,119.04764175415039,522.8443145751953,right,237.8125298023224,None,pp_19b,clamp,icub,2022_Jan_10_0924,exp,2021.2.3,59.96463000902121,
right,stop,0,0,0,0,6,5,41,5,238.32334780693054,None,1,0.5586340427398682,238.32334780693054,None,239.00851583480835,None,240.0208899974823,240.3472249507904,240.0208899974823,240.3472249507904,239.00851583480835,None,239.00851583480835,None,239.00851583480835,None,500,500,0,True,104.73060607910156,661.761999130249,right,241.64177584648132,None,pp_19b,clamp,icub,2022_Jan_10_0924,exp,2021.2.3,59.96463000902121,
right,stop,0,0,0,0,7,0,42,5,242.15685391426086,None,1,0.62142014503479,242.15685391426086,None,242.89679479599,None,243.8898069858551,244.21574187278748,243.8898069858551,244.21574187278748,242.89679479599,None,242.89679479599,None,242.89679479599,None,500,450,1,True,102.10776329040527,-1.0,-1,247.87665700912476,None,pp_19b,clamp,icub,2022_Jan_10_0924,exp,2021.2.3,59.96463000902121,
right,go,0,0,0,0,7,1,43,4,248.3943099975586,None,1,0.5776209831237793,248.3943099975586,None,249.04523491859436,None,250.05070090293884,250.38400888442993,250.05070090293884,250.38400888442993,249.04523491859436,None,249.04523491859436,None,249.04523491859436,None,-1,-1,1,True,351.15647315979004,565.178394317627,right,251.84294390678406,None,pp_19b,clamp,icub,2022_Jan_10_0924,exp,2021.2.3,59.96463000902121,
right,go,0,0,0,0,7,2,44,3,252.35461497306824,None,1,0.45775914192199707,252.35461497306824,None,252.92060089111328,None,253.93678998947144,254.26012301445007,253.93678998947144,254.26012301445007,252.92060089111328,None,252.92060089111328,None,252.92060089111328,None,-1,-1,1,True,323.06909561157227,496.86527252197266,right,255.63293886184692,None,pp_19b,clamp,icub,2022_Jan_10_0924,exp,2021.2.3,59.96463000902121,
right,stop,0,0,0,0,7,3,45,5,256.14424085617065,None,1,0.5169181823730469,256.14424085617065,None,256.76921582221985,None,257.75074791908264,258.0735659599304,257.75074791908264,258.0735659599304,256.76921582221985,None,256.76921582221985,None,256.76921582221985,None,500,500,0,True,284.00182723999023,543.1034564971924,right,259.48777890205383,None,pp_19b,clamp,icub,2022_Jan_10_0924,exp,2021.2.3,59.96463000902121,
left,go,0,0,0,0,7,4,46,1,260.0002589225769,None,1,0.532304048538208,260.0002589225769,None,260.6232039928436,None,261.62048387527466,261.95351481437683,261.62048387527466,261.95351481437683,260.6232039928436,None,260.6232039928436,None,260.6232039928436,None,-1,-1,1,True,355.90314865112305,636.6074085235596,left,263.5028839111328,None,pp_19b,clamp,icub,2022_Jan_10_0924,exp,2021.2.3,59.96463000902121,
left,go,0,0,0,0,7,5,47,0,264.01621198654175,None,1,0.352841854095459,264.01621198654175,None,264.46687483787537,None,265.467120885849,265.7896227836609,265.467120885849,265.7896227836609,264.46687483787537,None,264.46687483787537,None,264.46687483787537,None,-1,-1,1,True,321.8090534210205,599.4110107421875,left,267.2577929496765,None,pp_19b,clamp,icub,2022_Jan_10_0924,exp,2021.2.3,59.96463000902121,
right,stop,0,0,0,0,8,0,48,5,267.76267290115356,None,1,0.34550905227661133,267.76267290115356,None,268.21643900871277,None,269.2203528881073,269.54322695732117,269.2203528881073,269.54322695732117,268.21643900871277,None,268.21643900871277,None,268.21643900871277,None,500,450,0,True,292.4840450286865,525.5510807037354,right,270.9021818637848,None,pp_19b,clamp,icub,2022_Jan_10_0924,exp,2021.2.3,59.96463000902121,
right,go,0,0,0,0,8,1,49,4,271.4148988723755,None,1,0.589569091796875,271.4148988723755,None,272.0979118347168,None,273.1131639480591,273.4350998401642,273.1131639480591,273.4350998401642,272.0979118347168,None,272.0979118347168,None,272.0979118347168,None,-1,-1,1,True,279.8192501068115,592.5278663635254,right,274.86950492858887,None,pp_19b,clamp,icub,2022_Jan_10_0924,exp,2021.2.3,59.96463000902121,
left,stop,0,0,0,0,8,2,50,2,275.3840799331665,None,1,0.4382171630859375,275.3840799331665,None,275.928484916687,None,276.92962193489075,277.2801368236542,276.92962193489075,277.2801368236542,275.928484916687,None,275.928484916687,None,275.928484916687,None,500,400,0,True,275.9585380554199,661.592960357666,left,278.7447488307953,None,pp_19b,clamp,icub,2022_Jan_10_0924,exp,2021.2.3,59.96463000902121,
left,go,0,0,0,0,8,3,51,1,279.26253390312195,None,1,0.8561699390411377,279.26253390312195,None,280.2337968349457,None,281.2662618160248,281.63433480262756,281.2662618160248,281.63433480262756,280.2337968349457,None,280.2337968349457,None,280.2337968349457,None,-1,-1,1,True,292.5305366516113,661.9908809661865,left,283.07642579078674,None,pp_19b,clamp,icub,2022_Jan_10_0924,exp,2021.2.3,59.96463000902121,
right,go,0,0,0,0,8,4,52,3,283.59885692596436,None,1,0.2976510524749756,283.59885692596436,None,284.0167818069458,None,285.02129077911377,285.3838858604431,285.02129077911377,285.3838858604431,284.0167818069458,None,284.0167818069458,None,284.0167818069458,None,-1,-1,1,True,195.41192054748535,512.138843536377,right,286.62077498435974,None,pp_19b,clamp,icub,2022_Jan_10_0924,exp,2021.2.3,59.96463000902121,
left,stop,0,0,0,0,8,5,53,2,287.1387298107147,None,1,0.32418298721313477,287.1387298107147,None,287.5538558959961,None,288.5557689666748,288.90914487838745,288.5557689666748,288.90914487838745,287.5538558959961,None,287.5538558959961,None,287.5538558959961,None,450,400,0,True,229.80093955993652,604.2313575744629,left,290.27106499671936,None,pp_19b,clamp,icub,2022_Jan_10_0924,exp,2021.2.3,59.96463000902121,
right,go,0,0,0,0,9,0,54,3,290.7886219024658,None,1,0.398529052734375,290.7886219024658,None,291.26762294769287,None,292.2840178012848,292.63890385627747,292.2840178012848,292.63890385627747,291.26762294769287,None,291.26762294769287,None,291.26762294769287,None,,,0,False,3000.9865760803223,-1.0,-1,296.16319489479065,None,pp_19b,clamp,icub,2022_Jan_10_0924,exp,2021.2.3,59.96463000902121,
right,stop,0,0,0,0,9,1,55,5,296.69539284706116,None,1,3.0864100456237793,296.69539284706116,None,299.9097948074341,None,300.89109683036804,301.2137088775635,300.89109683036804,301.2137088775635,299.9097948074341,None,299.9097948074341,None,299.9097948074341,None,400,400,1,True,444.1189765930176,-1.0,-1,305.2438848018646,None,pp_19b,clamp,icub,2022_Jan_10_0924,exp,2021.2.3,59.96463000902121,
left,go,0,0,0,0,9,2,56,1,305.75603199005127,None,1,0.6194040775299072,305.75603199005127,None,306.49261593818665,None,307.4757378101349,307.7987937927246,307.4757378101349,307.7987937927246,306.49261593818665,None,306.49261593818665,None,306.49261593818665,None,-1,-1,1,True,651.5810489654541,609.9638938903809,left,309.6351418495178,None,pp_19b,clamp,icub,2022_Jan_10_0924,exp,2021.2.3,59.96463000902121,
left,go,0,0,0,0,9,3,57,1,310.163183927536,None,1,0.44206905364990234,310.163183927536,None,310.72283387184143,None,311.7358479499817,312.0853078365326,311.7358479499817,312.0853078365326,310.72283387184143,None,310.72283387184143,None,310.72283387184143,None,-1,-1,1,True,288.8035774230957,649.949312210083,left,313.54585886001587,None,pp_19b,clamp,icub,2022_Jan_10_0924,exp,2021.2.3,59.96463000902121,
right,go,0,0,0,0,9,4,58,3,314.08035588264465,None,1,0.3943760395050049,314.08035588264465,None,314.56048798561096,None,315.56349301338196,315.92201495170593,315.56349301338196,315.92201495170593,314.56048798561096,None,314.56048798561096,None,314.56048798561096,None,-1,-1,1,True,36.74459457397461,753.976583480835,right,317.2415668964386,None,pp_19b,clamp,icub,2022_Jan_10_0924,exp,2021.2.3,59.96463000902121,
left,go,0,0,0,0,9,5,59,1,317.76822996139526,None,1,0.4360630512237549,317.76822996139526,None,318.31070280075073,None,319.31743693351746,319.6703817844391,319.31743693351746,319.6703817844391,318.31070280075073,None,318.31070280075073,None,318.31070280075073,None,-1,-1,1,True,266.47472381591797,688.9529228210449,left,321.15271186828613,None,pp_19b,clamp,icub,2022_Jan_10_0924,exp,2021.2.3,59.96463000902121,
left,stop,0,0,0,0,10,0,60,2,321.6803319454193,None,1,0.33994507789611816,321.6803319454193,None,322.100811958313,None,323.0934548377991,323.4548568725586,323.0934548377991,323.4548568725586,322.100811958313,None,322.100811958313,None,322.100811958313,None,400,450,0,True,279.6356678009033,557.1558475494385,left,324.8244948387146,None,pp_19b,clamp,icub,2022_Jan_10_0924,exp,2021.2.3,59.96463000902121,
left,go,0,0,0,0,10,1,61,1,325.34158992767334,None,1,0.6102848052978516,325.34158992767334,None,326.02836084365845,None,327.042680978775,327.4023849964142,327.042680978775,327.4023849964142,326.02836084365845,None,326.02836084365845,None,326.02836084365845,None,-1,-1,1,True,233.5221767425537,695.2290534973145,left,328.8646697998047,None,pp_19b,clamp,icub,2022_Jan_10_0924,exp,2021.2.3,59.96463000902121,
left,go,0,0,0,0,10,2,62,1,329.3848478794098,None,1,0.2984931468963623,329.3848478794098,None,329.8039698600769,None,330.8328459262848,331.17751693725586,330.8328459262848,331.17751693725586,329.8039698600769,None,329.8039698600769,None,329.8039698600769,None,-1,-1,1,True,52.782297134399414,690.4962062835693,left,332.45037484169006,None,pp_19b,clamp,icub,2022_Jan_10_0924,exp,2021.2.3,59.96463000902121,
left,go,0,0,0,0,10,3,63,0,332.9679219722748,None,1,0.3451859951019287,332.9679219722748,None,333.4412248134613,None,334.4403169155121,334.7888197898865,334.4403169155121,334.7888197898865,333.4412248134613,None,333.4412248134613,None,333.4412248134613,None,-1,-1,0,False,260.0409984588623,610.1863384246826,right,336.1914629936218,None,pp_19b,clamp,icub,2022_Jan_10_0924,exp,2021.2.3,59.96463000902121,
left,stop,0,0,0,0,10,4,64,2,336.70018887519836,None,1,0.7180230617523193,336.70018887519836,None,337.54616379737854,None,338.54047894477844,338.89473581314087,338.54047894477844,338.89473581314087,337.54616379737854,None,337.54616379737854,None,337.54616379737854,None,350,450,1,True,308.83073806762695,-1.0,-1,342.7412829399109,None,pp_19b,clamp,icub,2022_Jan_10_0924,exp,2021.2.3,59.96463000902121,
left,go,0,0,0,0,10,5,65,0,343.2340438365936,None,1,0.46764183044433594,343.2340438365936,None,343.78594279289246,None,344.75701689720154,345.1027989387512,344.75701689720154,345.1027989387512,343.78594279289246,None,343.78594279289246,None,343.78594279289246,None,-1,-1,1,True,272.4630832672119,586.604118347168,left,346.53263783454895,None,pp_19b,clamp,icub,2022_Jan_10_0924,exp,2021.2.3,59.96463000902121,
right,go,0,0,0,0,11,0,66,3,347.0415849685669,None,1,0.41445302963256836,347.0415849685669,None,347.5849449634552,None,348.6077449321747,348.96114778518677,348.6077449321747,348.96114778518677,347.5849449634552,None,347.5849449634552,None,347.5849449634552,None,-1,-1,1,True,170.20297050476074,671.0991859436035,right,350.32269382476807,None,pp_19b,clamp,icub,2022_Jan_10_0924,exp,2021.2.3,59.96463000902121,
left,go,0,0,0,0,11,1,67,0,350.82983899116516,None,1,0.934406042098999,350.82983899116516,None,351.8709638118744,None,352.87100100517273,353.23211097717285,352.87100100517273,353.23211097717285,351.8709638118744,None,351.8709638118744,None,351.8709638118744,None,-1,-1,1,True,328.4132480621338,695.8167552947998,left,354.770388841629,None,pp_19b,clamp,icub,2022_Jan_10_0924,exp,2021.2.3,59.96463000902121,
right,go,0,0,0,0,11,2,68,3,355.29923582077026,None,1,0.43773698806762695,355.29923582077026,None,355.8432660102844,None,356.85722494125366,357.19864296913147,356.85722494125366,357.19864296913147,355.8432660102844,None,355.8432660102844,None,355.8432660102844,None,-1,-1,1,True,216.6893482208252,539.7610664367676,right,358.47721791267395,None,pp_19b,clamp,icub,2022_Jan_10_0924,exp,2021.2.3,59.96463000902121,
right,stop,0,0,0,0,11,3,69,5,359.01382279396057,None,1,0.5373008251190186,359.01382279396057,None,359.68077087402344,None,360.68782591819763,361.03345584869385,360.68782591819763,361.03345584869385,359.68077087402344,None,359.68077087402344,None,359.68077087402344,None,400,450,0,True,210.17146110534668,516.291618347168,right,362.32449293136597,None,pp_19b,clamp,icub,2022_Jan_10_0924,exp,2021.2.3,59.96463000902121,
right,go,0,0,0,0,11,4,70,3,362.84916591644287,None,1,0.581151008605957,362.84916591644287,None,363.5159058570862,None,364.5377609729767,364.8859009742737,364.5377609729767,364.8859009742737,363.5159058570862,None,363.5159058570862,None,363.5159058570862,None,-1,-1,1,True,149.58596229553223,792.1164035797119,right,366.3580629825592,None,pp_19b,clamp,icub,2022_Jan_10_0924,exp,2021.2.3,59.96463000902121,
left,stop,0,0,0,0,11,5,71,2,366.8614299297333,None,1,0.495419979095459,366.8614299297333,None,367.4644479751587,None,368.467159986496,368.8321659564972,368.467159986496,368.8321659564972,367.4644479751587,None,367.4644479751587,None,367.4644479751587,None,400,400,1,True,447.5564956665039,-1.0,-1,372.80931401252747,None,pp_19b,clamp,icub,2022_Jan_10_0924,exp,2021.2.3,59.96463000902121,
right,go,0,0,0,0,12,0,72,4,373.34168791770935,None,1,1.138944149017334,373.34168791770935,None,374.57395601272583,None,375.55347895622253,375.9168789386749,375.55347895622253,375.9168789386749,374.57395601272583,None,374.57395601272583,None,374.57395601272583,None,-1,-1,1,True,448.6064910888672,665.0979518890381,right,377.5636668205261,None,pp_19b,clamp,icub,2022_Jan_10_0924,exp,2021.2.3,59.96463000902121,
right,stop,0,0,0,0,12,1,73,5,378.0749089717865,None,1,0.407944917678833,378.0749089717865,None,378.61512899398804,None,379.6382110118866,379.97591495513916,379.6382110118866,379.97591495513916,378.61512899398804,None,378.61512899398804,None,378.61512899398804,None,450,400,0,True,250.25367736816406,616.3427829742432,right,381.3633978366852,None,pp_19b,clamp,icub,2022_Jan_10_0924,exp,2021.2.3,59.96463000902121,
right,go,0,0,0,0,12,2,74,3,381.8757948875427,None,1,0.7565209865570068,381.8757948875427,None,382.72766184806824,None,383.74980187416077,384.1172308921814,383.74980187416077,384.1172308921814,382.72766184806824,None,382.72766184806824,None,382.72766184806824,None,-1,-1,1,True,271.10815048217773,1034.9199771881104,right,385.91561794281006,None,pp_19b,clamp,icub,2022_Jan_10_0924,exp,2021.2.3,59.96463000902121,
left,go,0,0,0,0,12,3,75,1,386.42214584350586,None,1,0.48749494552612305,386.42214584350586,None,387.01228380203247,None,388.0404119491577,388.39828085899353,388.0404119491577,388.39828085899353,387.01228380203247,None,387.01228380203247,None,387.01228380203247,None,-1,-1,1,True,172.0578670501709,555.7019710540771,left,389.64773178100586,None,pp_19b,clamp,icub,2022_Jan_10_0924,exp,2021.2.3,59.96463000902121,
right,go,0,0,0,0,12,4,76,4,390.1671829223633,None,1,0.7857761383056641,390.1671829223633,None,391.0773367881775,None,392.07619190216064,392.4369249343872,392.07619190216064,392.4369249343872,391.0773367881775,None,391.0773367881775,None,391.0773367881775,None,-1,-1,1,True,281.05711936950684,519.071102142334,right,393.75126791000366,None,pp_19b,clamp,icub,2022_Jan_10_0924,exp,2021.2.3,59.96463000902121,
left,stop,0,0,0,0,12,5,77,2,394.2714078426361,None,1,0.5143570899963379,394.2714078426361,None,394.902822971344,None,395.8992028236389,396.26663088798523,395.8992028236389,396.26663088798523,394.902822971344,None,394.902822971344,None,394.902822971344,None,450,350,0,True,327.22973823547363,639.3873691558838,left,397.76153087615967,None,pp_19b,clamp,icub,2022_Jan_10_0924,exp,2021.2.3,59.96463000902121,
left,go,1,0,1,0,0,0,0,0,422.9345278739929,None,1,10.271876811981201,422.9345278739929,None,433.3108949661255,None,434.3372759819031,434.68641090393066,434.3372759819031,434.68641090393066,433.3108949661255,None,433.3108949661255,None,433.3108949661255,None,-1,-1,1,True,332.8840732574463,556.2114715576172,left,436.11224579811096,None,pp_19b,clamp,icub,2022_Jan_10_0924,exp,2021.2.3,59.96463000902121,
left,stop,1,0,1,0,0,1,1,2,436.6096098423004,None,1,0.3869020938873291,436.6096098423004,None,437.0871789455414,None,438.0823218822479,438.44028401374817,438.0823218822479,438.44028401374817,437.0871789455414,None,437.0871789455414,None,437.0871789455414,None,,,0,False,-1.0,-1.0,-1,438.8051037788391,None,pp_19b,clamp,icub,2022_Jan_10_0924,exp,2021.2.3,59.96463000902121,
left,go,1,0,1,0,0,2,2,0,439.29887890815735,None,1,1.0728180408477783,439.29887890815735,None,440.5039978027344,None,441.50951981544495,441.86691093444824,441.50951981544495,441.86691093444824,440.5039978027344,None,440.5039978027344,None,440.5039978027344,None,-1,-1,1,True,242.33078956604004,597.3732471466064,left,443.25853300094604,None,pp_19b,clamp,icub,2022_Jan_10_0924,exp,2021.2.3,59.96463000902121,
right,go,1,0,1,0,0,3,3,4,443.7638609409332,None,1,0.41309690475463867,443.7638609409332,None,444.3006908893585,None,445.30920481681824,445.6584208011627,445.30920481681824,445.6584208011627,444.3006908893585,None,444.3006908893585,None,444.3006908893585,None,-1,-1,1,True,201.82299613952637,522.3519802093506,right,446.9080419540405,None,pp_19b,clamp,icub,2022_Jan_10_0924,exp,2021.2.3,59.96463000902121,
right,go,1,0,1,0,0,4,4,4,447.43866181373596,None,1,0.4660379886627197,447.43866181373596,None,447.98049998283386,None,448.9776349067688,449.3330819606781,448.9776349067688,449.3330819606781,447.98049998283386,None,447.98049998283386,None,447.98049998283386,None,-1,-1,1,True,253.5710334777832,508.4567070007324,right,450.6267738342285,None,pp_19b,clamp,icub,2022_Jan_10_0924,exp,2021.2.3,59.96463000902121,
left,stop,1,0,1,0,0,5,5,2,451.12563586235046,None,1,0.531775951385498,451.12563586235046,None,451.7897958755493,None,452.7850618362427,453.13857984542847,452.7850618362427,453.13857984542847,451.7897958755493,None,451.7897958755493,None,451.7897958755493,None,400,350,1,True,2036.9772911071777,-1.0,-1,458.7019169330597,None,pp_19b,clamp,icub,2022_Jan_10_0924,exp,2021.2.3,59.96463000902121,
right,go,1,0,1,0,1,0,6,3,459.23300981521606,None,1,0.7470481395721436,459.23300981521606,None,460.09334778785706,None,461.0974040031433,461.4589228630066,461.0974040031433,461.4589228630066,460.09334778785706,None,460.09334778785706,None,460.09334778785706,None,-1,-1,1,True,316.75195693969727,543.9081192016602,right,462.8509769439697,None,pp_19b,clamp,icub,2022_Jan_10_0924,exp,2021.2.3,59.96463000902121,
right,go,1,0,1,0,1,1,7,3,463.3541839122772,None,1,0.43243908882141113,463.3541839122772,None,463.8977270126343,None,464.89297699928284,465.2155017852783,464.89297699928284,465.2155017852783,463.8977270126343,None,463.8977270126343,None,463.8977270126343,None,-1,-1,1,True,196.38299942016602,548.2580661773682,right,466.52882385253906,None,pp_19b,clamp,icub,2022_Jan_10_0924,exp,2021.2.3,59.96463000902121,
right,go,1,0,1,0,1,2,8,3,467.03257489204407,None,1,0.463176965713501,467.03257489204407,None,467.5762138366699,None,468.6073977947235,468.9635739326477,468.6073977947235,468.9635739326477,467.5762138366699,None,467.5762138366699,None,467.5762138366699,None,-1,-1,1,True,241.19329452514648,565.8237934112549,right,470.2830069065094,None,pp_19b,clamp,icub,2022_Jan_10_0924,exp,2021.2.3,59.96463000902121,
right,go,1,0,1,0,1,3,9,4,470.7970998287201,None,1,0.5189931392669678,470.7970998287201,None,471.4017448425293,None,472.40871596336365,472.7590579986572,472.40871596336365,472.7590579986572,471.4017448425293,None,471.4017448425293,None,471.4017448425293,None,-1,-1,1,True,260.04552841186523,572.8888511657715,right,474.11286878585815,None,pp_19b,clamp,icub,2022_Jan_10_0924,exp,2021.2.3,59.96463000902121,
right,go,1,0,1,0,1,4,10,3,474.64797496795654,None,1,0.5768201351165771,474.64797496795654,None,475.3156359195709,None,476.33099699020386,476.67710399627686,476.33099699020386,476.67710399627686,475.3156359195709,None,475.3156359195709,None,475.3156359195709,None,-1,-1,1,True,370.20015716552734,607.1226596832275,right,478.18197989463806,None,pp_19b,clamp,icub,2022_Jan_10_0924,exp,2021.2.3,59.96463000902121,
left,go,1,0,1,0,1,5,11,0,478.71024084091187,None,1,0.5373001098632812,478.71024084091187,None,479.37504601478577,None,480.40263295173645,480.7268989086151,480.40263295173645,480.7268989086151,479.37504601478577,None,479.37504601478577,None,479.37504601478577,None,-1,-1,1,True,304.0580749511719,628.2336711883545,left,482.1978008747101,None,pp_19b,clamp,icub,2022_Jan_10_0924,exp,2021.2.3,59.96463000902121,
right,go,1,0,1,0,2,0,12,4,482.716276884079,None,1,0.37215209007263184,482.716276884079,None,483.1995508670807,None,484.21135091781616,484.55095982551575,484.21135091781616,484.55095982551575,483.1995508670807,None,483.1995508670807,None,483.1995508670807,None,-1,-1,1,True,339.47157859802246,570.1777935028076,right,485.98888087272644,None,pp_19b,clamp,icub,2022_Jan_10_0924,exp,2021.2.3,59.96463000902121,
right,go,1,0,1,0,2,1,13,3,486.49530601501465,None,1,0.6101179122924805,486.49530601501465,None,487.2206988334656,None,488.23216485977173,488.5975170135498,488.23216485977173,488.5975170135498,487.2206988334656,None,487.2206988334656,None,487.2206988334656,None,-1,-1,1,True,260.6961727142334,545.4015731811523,right,489.92829298973083,None,pp_19b,clamp,icub,2022_Jan_10_0924,exp,2021.2.3,59.96463000902121,
left,go,1,0,1,0,2,2,14,1,490.44420099258423,None,1,0.5932021141052246,490.44420099258423,None,491.17018389701843,None,492.18970489501953,492.55077481269836,492.18970489501953,492.55077481269836,491.17018389701843,None,491.17018389701843,None,491.17018389701843,None,-1,-1,1,True,381.7312717437744,540.6801700592041,left,494.0029389858246,None,pp_19b,clamp,icub,2022_Jan_10_0924,exp,2021.2.3,59.96463000902121,
right,stop,1,0,1,0,2,3,15,5,494.5221619606018,None,1,0.44328999519348145,494.5221619606018,None,495.06553077697754,None,496.0796248912811,496.43187499046326,496.0796248912811,496.43187499046326,495.06553077697754,None,495.06553077697754,None,495.06553077697754,None,450,350,0,True,448.29726219177246,543.2395935058594,right,497.9431438446045,None,pp_19b,clamp,icub,2022_Jan_10_0924,exp,2021.2.3,59.96463000902121,
left,stop,1,0,1,0,2,4,16,2,498.46164178848267,None,1,0.6177198886871338,498.46164178848267,None,499.1909239292145,None,500.1815400123596,500.5235869884491,500.1815400123596,500.5235869884491,499.1909239292145,None,499.1909239292145,None,499.1909239292145,None,450,300,0,True,184.9818229675293,635.4646682739258,left,501.91268491744995,None,pp_19b,clamp,icub,2022_Jan_10_0924,exp,2021.2.3,59.96463000902121,
left,stop,1,0,1,0,2,5,17,2,502.4218668937683,None,1,0.4767789840698242,502.4218668937683,None,503.02159690856934,None,504.02601981163025,504.3937668800354,504.02601981163025,504.3937668800354,503.02159690856934,None,503.02159690856934,None,503.02159690856934,None,400,300,1,True,96.33183479309082,-1.0,-1,508.0288817882538,None,pp_19b,clamp,icub,2022_Jan_10_0924,exp,2021.2.3,59.96463000902121,
left,go,1,0,1,0,3,0,18,0,508.52357387542725,None,1,1.5392920970916748,508.52357387542725,None,510.19378900527954,None,511.168093919754,511.49259996414185,511.168093919754,511.49259996414185,510.19378900527954,None,510.19378900527954,None,510.19378900527954,None,-1,-1,1,True,317.2111511230469,679.7747611999512,left,513.0881049633026,None,pp_19b,clamp,icub,2022_Jan_10_0924,exp,2021.2.3,59.96463000902121,
left,go,1,0,1,0,3,1,19,1,513.6048979759216,None,1,0.20351505279541016,513.6048979759216,None,513.8989248275757,None,514.9316959381104,515.2890818119049,514.9316959381104,515.2890818119049,513.8989248275757,None,513.8989248275757,None,513.8989248275757,None,-1,-1,1,True,211.17806434631348,584.4058990478516,left,516.5734238624573,None,pp_19b,clamp,icub,2022_Jan_10_0924,exp,2021.2.3,59.96463000902121,
left,stop,1,0,1,0,3,2,20,2,517.0942318439484,None,1,0.4378499984741211,517.0942318439484,None,517.6378538608551,None,518.6499788761139,519.0123507976532,518.6499788761139,519.0123507976532,517.6378538608551,None,517.6378538608551,None,517.6378538608551,None,450,300,0,True,28.229951858520508,719.3493843078613,left,520.2976689338684,None,pp_19b,clamp,icub,2022_Jan_10_0924,exp,2021.2.3,59.96463000902121,
right,go,1,0,1,0,3,3,21,3,520.793173789978,None,1,4.440002918243408,520.793173789978,None,525.3378999233246,None,526.3468909263611,526.6930389404297,526.3468909263611,526.6930389404297,525.3378999233246,None,525.3378999233246,None,525.3378999233246,None,-1,-1,1,True,261.9023323059082,595.5960750579834,right,528.0854709148407,None,pp_19b,clamp,icub,2022_Jan_10_0924,exp,2021.2.3,59.96463000902121,
right,go,1,0,1,0,3,4,22,4,528.6156449317932,None,1,0.5834698677062988,528.6156449317932,None,529.2795858383179,None,530.295893907547,530.6471848487854,530.295893907547,530.6471848487854,529.2795858383179,None,529.2795858383179,None,529.2795858383179,None,-1,-1,1,True,278.688907623291,616.5719032287598,right,532.0676379203796,None,pp_19b,clamp,icub,2022_Jan_10_0924,exp,2021.2.3,59.96463000902121,
left,go,1,0,1,0,3,5,23,0,532.5882999897003,None,1,0.5891749858856201,532.5882999897003,None,533.2577948570251,None,534.2738258838654,534.5970339775085,534.2738258838654,534.5970339775085,533.2577948570251,None,533.2577948570251,None,533.2577948570251,None,-1,-1,1,True,156.22472763061523,567.8162574768066,left,535.8795709609985,None,pp_19b,clamp,icub,2022_Jan_10_0924,exp,2021.2.3,59.96463000902121,
right,stop,1,0,1,0,4,0,24,5,536.3887059688568,None,1,0.5804688930511475,536.3887059688568,None,537.0549159049988,None,538.0840089321136,538.433837890625,538.0840089321136,538.433837890625,537.0549159049988,None,537.0549159049988,None,537.0549159049988,None,,,0,False,3000.4334449768066,-1.0,-1,541.9452388286591,None,pp_19b,clamp,icub,2022_Jan_10_0924,exp,2021.2.3,59.96463000902121,
right,stop,1,0,1,0,4,1,25,5,542.4388589859009,None,1,2.8944778442382812,542.4388589859009,None,545.4540028572083,None,546.4617137908936,546.8039050102234,546.4617137908936,546.8039050102234,545.4540028572083,None,545.4540028572083,None,545.4540028572083,None,400,300,1,True,274.9509811401367,-1.0,-1,550.6161828041077,None,pp_19b,clamp,icub,2022_Jan_10_0924,exp,2021.2.3,59.96463000902121,
right,stop,1,0,1,0,4,2,26,5,551.1102859973907,None,1,0.22634005546569824,551.1102859973907,None,551.4746918678284,None,552.4555988311768,552.8156027793884,552.4555988311768,552.8156027793884,551.4746918678284,None,551.4746918678284,None,551.4746918678284,None,400,350,1,True,529.865026473999,-1.0,-1,556.9037449359894,None,pp_19b,clamp,icub,2022_Jan_10_0924,exp,2021.2.3,59.96463000902121,
right,stop,1,0,1,0,4,3,27,5,557.4276149272919,None,1,0.9998300075531006,557.4276149272919,None,558.5343689918518,None,559.5443987846375,559.9151380062103,559.5443987846375,559.9151380062103,558.5343689918518,None,558.5343689918518,None,558.5343689918518,None,400,400,1,True,276.6153812408447,-1.0,-1,563.6826479434967,None,pp_19b,clamp,icub,2022_Jan_10_0924,exp,2021.2.3,59.96463000902121,
left,go,1,0,1,0,4,4,28,1,564.2145547866821,None,1,0.943140983581543,564.2145547866821,None,565.2619450092316,None,566.2440979480743,566.5670289993286,566.2440979480743,566.5670289993286,565.2619450092316,None,565.2619450092316,None,565.2619450092316,None,-1,-1,1,True,345.46661376953125,658.5257053375244,left,568.1323518753052,None,pp_19b,clamp,icub,2022_Jan_10_0924,exp,2021.2.3,59.96463000902121,
left,go,1,0,1,0,4,5,29,0,568.6439418792725,None,1,0.4008450508117676,568.6439418792725,None,569.1250808238983,None,570.1568989753723,570.5084969997406,570.1568989753723,570.5084969997406,569.1250808238983,None,569.1250808238983,None,569.1250808238983,None,-1,-1,1,True,171.93937301635742,603.6136150360107,left,571.8055038452148,None,pp_19b,clamp,icub,2022_Jan_10_0924,exp,2021.2.3,59.96463000902121,
left,stop,1,0,1,0,5,0,30,2,572.3259899616241,None,1,0.42301011085510254,572.3259899616241,None,572.8673658370972,None,573.8647019863129,574.2221808433533,573.8647019863129,574.2221808433533,572.8673658370972,None,572.8673658370972,None,572.8673658370972,None,400,450,0,True,276.6084671020508,594.5248603820801,left,575.6282398700714,None,pp_19b,clamp,icub,2022_Jan_10_0924,exp,2021.2.3,59.96463000902121,
right,go,1,0,1,0,5,1,31,4,576.1260747909546,None,1,0.9111239910125732,576.1260747909546,None,577.1622669696808,None,578.1777927875519,578.5364429950714,578.1777927875519,578.5364429950714,577.1622669696808,None,577.1622669696808,None,577.1622669696808,None,-1,-1,1,True,227.85115242004395,620.2576160430908,right,579.9186358451843,None,pp_19b,clamp,icub,2022_Jan_10_0924,exp,2021.2.3,59.96463000902121,
left,go,1,0,1,0,5,2,32,1,580.4449279308319,None,1,0.5312139987945557,580.4449279308319,None,581.1087529659271,None,582.111160993576,582.4598867893219,582.111160993576,582.4598867893219,581.1087529659271,None,581.1087529659271,None,581.1087529659271,None,-1,-1,1,True,247.1156120300293,633.946418762207,left,583.8715579509735,None,pp_19b,clamp,icub,2022_Jan_10_0924,exp,2021.2.3,59.96463000902121,
right,stop,1,0,1,0,5,3,33,5,584.4055528640747,None,1,0.2832520008087158,584.4055528640747,None,584.7643949985504,None,585.7680718898773,586.1150388717651,585.7680718898773,586.1150388717651,584.7643949985504,None,584.7643949985504,None,584.7643949985504,None,350,450,0,True,263.96703720092773,523.0274200439453,right,587.4322738647461,None,pp_19b,clamp,icub,2022_Jan_10_0924,exp,2021.2.3,59.96463000902121,
right,go,1,0,1,0,5,4,34,3,587.9428579807281,None,1,0.7670660018920898,587.9428579807281,None,588.7957119941711,None,None,None,None,None,588.7957119941711,None,588.7957119941711,None,588.7957119941711,None,,,0,False,-1.0,-1.0,-1,589.8781318664551,None,pp_19b,clamp,icub,2022_Jan_10_0924,exp,2021.2.3,59.96463000902121,
right,go,1,0,1,0,5,5,35,3,590.4104998111725,None,1,1.2399420738220215,590.4104998111725,None,591.7696838378906,None,592.7483568191528,593.0896079540253,592.7483568191528,593.0896079540253,591.7696838378906,None,591.7696838378906,None,591.7696838378906,None,-1,-1,1,True,545.6457138061523,521.9085216522217,right,594.7137730121613,None,pp_19b,clamp,icub,2022_Jan_10_0924,exp,2021.2.3,59.96463000902121,
left,stop,1,0,1,0,6,0,36,2,595.2347528934479,None,1,0.22393798828125,595.2347528934479,None,595.5869419574738,None,596.5935249328613,596.9484310150146,596.5935249328613,596.9484310150146,595.5869419574738,None,595.5869419574738,None,595.5869419574738,None,350,400,1,True,313.28868865966797,-1.0,-1,600.7743718624115,None,pp_19b,clamp,icub,2022_Jan_10_0924,exp,2021.2.3,59.96463000902121,
right,go,1,0,1,0,6,1,37,4,601.307168006897,None,1,0.6442699432373047,601.307168006897,None,602.0433897972107,None,603.0274558067322,603.3626518249512,603.0274558067322,603.3626518249512,602.0433897972107,None,602.0433897972107,None,602.0433897972107,None,-1,-1,1,True,345.7989692687988,505.1422119140625,right,604.7754769325256,None,pp_19b,clamp,icub,2022_Jan_10_0924,exp,2021.2.3,59.96463000902121,
left,go,1,0,1,0,6,2,38,0,605.2884449958801,None,1,0.5214018821716309,605.2884449958801,None,605.8952629566193,None,606.9221549034119,607.269387960434,606.9221549034119,607.269387960434,605.8952629566193,None,605.8952629566193,None,605.8952629566193,None,-1,-1,1,True,145.5237865447998,582.2603702545166,left,608.5232110023499,None,pp_19b,clamp,icub,2022_Jan_10_0924,exp,2021.2.3,59.96463000902121,
left,go,1,0,1,0,6,3,39,1,609.0406517982483,None,1,0.5500831604003906,609.0406517982483,None,609.7058579921722,None,610.7152168750763,611.0617837905884,610.7152168750763,611.0617837905884,609.7058579921722,None,609.7058579921722,None,609.7058579921722,None,-1,-1,1,True,209.0902328491211,601.3326644897461,left,612.3882148265839,None,pp_19b,clamp,icub,2022_Jan_10_0924,exp,2021.2.3,59.96463000902121,
left,stop,1,0,1,0,6,4,40,2,612.8964920043945,None,1,0.6023788452148438,612.8964920043945,None,613.6233267784119,None,614.6244418621063,614.9897258281708,614.6244418621063,614.9897258281708,613.6233267784119,None,613.6233267784119,None,613.6233267784119,None,400,400,1,True,315.90890884399414,-1.0,-1,618.8372910022736,None,pp_19b,clamp,icub,2022_Jan_10_0924,exp,2021.2.3,59.96463000902121,
left,stop,1,0,1,0,6,5,41,2,619.3681077957153,None,1,0.4832470417022705,619.3681077957153,None,619.9802248477936,None,620.9521398544312,621.3037009239197,620.9521398544312,621.3037009239197,619.9802248477936,None,619.9802248477936,None,619.9802248477936,None,450,400,0,True,192.0170783996582,585.9909057617188,left,622.6578359603882,None,pp_19b,clamp,icub,2022_Jan_10_0924,exp,2021.2.3,59.96463000902121,
right,stop,1,0,1,0,7,0,42,5,623.1721158027649,None,1,0.8776102066040039,623.1721158027649,None,624.150664806366,None,625.1750938892365,625.5331518650055,625.1750938892365,625.5331518650055,624.150664806366,None,624.150664806366,None,624.150664806366,None,400,400,1,True,143.87917518615723,-1.0,-1,629.1734218597412,None,pp_19b,clamp,icub,2022_Jan_10_0924,exp,2021.2.3,59.96463000902121,
right,stop,1,0,1,0,7,1,43,5,629.6681678295135,None,1,0.7821331024169922,629.6681678295135,None,630.5907897949219,None,631.5971930027008,631.9497718811035,631.5971930027008,631.9497718811035,630.5907897949219,None,630.5907897949219,None,630.5907897949219,None,400,450,0,True,178.0233383178711,528.2690525054932,right,633.1922619342804,None,pp_19b,clamp,icub,2022_Jan_10_0924,exp,2021.2.3,59.96463000902121,
left,go,1,0,1,0,7,2,44,1,633.7076008319855,None,1,0.872873067855835,633.7076008319855,None,634.6804778575897,None,635.7034318447113,636.0607378482819,635.7034318447113,636.0607378482819,634.6804778575897,None,634.6804778575897,None,634.6804778575897,None,-1,-1,1,True,322.7500915527344,537.4495983123779,left,637.4473879337311,None,pp_19b,clamp,icub,2022_Jan_10_0924,exp,2021.2.3,59.96463000902121,
right,go,1,0,1,0,7,3,45,4,637.9644138813019,None,1,0.46723484992980957,637.9644138813019,None,638.5593090057373,None,639.5850968360901,639.9288399219513,639.5850968360901,639.9288399219513,638.5593090057373,None,638.5593090057373,None,638.5593090057373,None,-1,-1,1,True,60.6844425201416,624.9704360961914,right,641.1199378967285,None,pp_19b,clamp,icub,2022_Jan_10_0924,exp,2021.2.3,59.96463000902121,
right,go,1,0,1,0,7,4,46,3,641.6531188488007,None,1,0.6345930099487305,641.6531188488007,None,642.3805868625641,None,643.4073598384857,643.7624509334564,643.4073598384857,643.7624509334564,642.3805868625641,None,642.3805868625641,None,642.3805868625641,None,-1,-1,1,True,192.27838516235352,542.0072078704834,right,644.9849779605865,None,pp_19b,clamp,icub,2022_Jan_10_0924,exp,2021.2.3,59.96463000902121,
left,go,1,0,1,0,7,5,47,1,645.4886198043823,None,1,0.7751162052154541,645.4886198043823,None,646.396625995636,None,647.4079577922821,647.7690668106079,647.4079577922821,647.7690668106079,646.396625995636,None,646.396625995636,None,646.396625995636,None,-1,-1,1,True,140.86103439331055,658.0796241760254,left,649.1001858711243,None,pp_19b,clamp,icub,2022_Jan_10_0924,exp,2021.2.3,59.96463000902121,
right,stop,1,0,1,0,8,0,48,5,649.6092238426208,None,1,0.7618041038513184,649.6092238426208,None,650.4616808891296,None,651.4592559337616,651.8141629695892,651.4592559337616,651.8141629695892,650.4616808891296,None,650.4616808891296,None,650.4616808891296,None,400,400,0,True,42.398929595947266,759.9115371704102,right,653.1680729389191,None,pp_19b,clamp,icub,2022_Jan_10_0924,exp,2021.2.3,59.96463000902121,
right,go,1,0,1,0,8,1,49,4,653.6764400005341,None,1,1.1080188751220703,653.6764400005341,None,654.8960978984833,None,655.8981189727783,656.2491579055786,655.8981189727783,656.2491579055786,654.8960978984833,None,654.8960978984833,None,654.8960978984833,None,-1,-1,1,True,310.4844093322754,722.9776382446289,right,657.8201928138733,None,pp_19b,clamp,icub,2022_Jan_10_0924,exp,2021.2.3,59.96463000902121,
right,go,1,0,1,0,8,2,50,3,658.3203299045563,None,1,0.6061620712280273,658.3203299045563,None,659.0457668304443,None,660.0659759044647,660.4156949520111,660.0659759044647,660.4156949520111,659.0457668304443,None,659.0457668304443,None,659.0457668304443,None,-1,-1,1,True,155.42364120483398,659.5885753631592,right,661.7610158920288,None,pp_19b,clamp,icub,2022_Jan_10_0924,exp,2021.2.3,59.96463000902121,
right,stop,1,0,1,0,8,3,51,5,662.2900137901306,None,1,0.774677038192749,662.2900137901306,None,663.1402859687805,None,664.1670827865601,664.52969789505,664.1670827865601,664.52969789505,663.1402859687805,None,663.1402859687805,None,663.1402859687805,None,400,350,1,True,287.0943546295166,-1.0,-1,668.2958099842072,None,pp_19b,clamp,icub,2022_Jan_10_0924,exp,2021.2.3,59.96463000902121,
left,go,1,0,1,0,8,4,52,0,668.8270947933197,None,1,1.12101411819458,668.8270947933197,None,670.0578498840332,None,671.0374479293823,671.4031639099121,671.0374479293823,671.4031639099121,670.0578498840332,None,670.0578498840332,None,670.0578498840332,None,-1,-1,1,True,280.7583808898926,615.830659866333,left,672.854160785675,None,pp_19b,clamp,icub,2022_Jan_10_0924,exp,2021.2.3,59.96463000902121,
left,go,1,0,1,0,8,5,53,0,673.378390789032,None,1,0.4242830276489258,673.378390789032,None,673.91574883461,None,674.9480819702148,675.28955078125,674.9480819702148,675.28955078125,673.91574883461,None,673.91574883461,None,673.91574883461,None,-1,-1,1,True,334.9490165710449,1031.7716598510742,left,677.1849219799042,None,pp_19b,clamp,icub,2022_Jan_10_0924,exp,2021.2.3,59.96463000902121,
right,go,1,0,1,0,9,0,54,3,677.7033178806305,None,1,0.48139381408691406,677.7033178806305,None,678.3053648471832,None,679.2973217964172,679.6317839622498,679.2973217964172,679.6317839622498,678.3053648471832,None,678.3053648471832,None,678.3053648471832,None,-1,-1,1,True,317.17848777770996,563.7586116790771,right,681.0617778301239,None,pp_19b,clamp,icub,2022_Jan_10_0924,exp,2021.2.3,59.96463000902121,
left,go,1,0,1,0,9,1,55,0,681.5629029273987,None,1,0.6335909366607666,681.5629029273987,None,682.2903759479523,None,683.2906179428101,683.6155819892883,683.2906179428101,683.6155819892883,682.2903759479523,None,682.2903759479523,None,682.2903759479523,None,-1,-1,1,True,232.93662071228027,646.8095779418945,left,685.0670208930969,None,pp_19b,clamp,icub,2022_Jan_10_0924,exp,2021.2.3,59.96463000902121,
left,stop,1,0,1,0,9,2,56,2,685.5839200019836,None,1,0.24279189109802246,685.5839200019836,None,685.9408848285675,None,686.9384179115295,687.2855198383331,686.9384179115295,687.2855198383331,685.9408848285675,None,685.9408848285675,None,685.9408848285675,None,400,400,0,True,60.51349639892578,576.3528347015381,left,688.4586207866669,None,pp_19b,clamp,icub,2022_Jan_10_0924,exp,2021.2.3,59.96463000902121,
right,go,1,0,1,0,9,3,57,4,688.978905916214,None,1,0.5598690509796143,688.978905916214,None,689.6455709934235,None,690.6430180072784,690.997710943222,690.6430180072784,690.997710943222,689.6455709934235,None,689.6455709934235,None,689.6455709934235,None,-1,-1,1,True,278.6693572998047,548.6946105957031,right,692.3583488464355,None,pp_19b,clamp,icub,2022_Jan_10_0924,exp,2021.2.3,59.96463000902121,
left,go,1,0,1,0,9,4,58,1,692.8609008789062,None,1,0.4592750072479248,692.8609008789062,None,693.4058330059052,None,694.4132978916168,694.7738299369812,694.4132978916168,694.7738299369812,693.4058330059052,None,693.4058330059052,None,693.4058330059052,None,-1,-1,1,True,248.96812438964844,587.0566368103027,left,696.1367838382721,None,pp_19b,clamp,icub,2022_Jan_10_0924,exp,2021.2.3,59.96463000902121,
left,go,1,0,1,0,9,5,59,1,696.6568248271942,None,1,0.3568108081817627,696.6568248271942,None,697.1368279457092,None,698.1616089344025,698.5217199325562,698.1616089344025,698.5217199325562,697.1368279457092,None,697.1368279457092,None,697.1368279457092,None,-1,-1,1,True,257.01022148132324,525.2909660339355,left,699.8208148479462,None,pp_19b,clamp,icub,2022_Jan_10_0924,exp,2021.2.3,59.96463000902121,
right,stop,1,0,1,0,10,0,60,5,700.3393158912659,None,1,0.46387410163879395,700.3393158912659,None,700.9407629966736,None,701.9580798149109,702.3178849220276,701.9580798149109,702.3178849220276,700.9407629966736,None,700.9407629966736,None,700.9407629966736,None,350,400,1,True,315.701961517334,-1.0,-1,706.1473429203033,None,pp_19b,clamp,icub,2022_Jan_10_0924,exp,2021.2.3,59.96463000902121,
left,stop,1,0,1,0,10,1,61,2,706.6765999794006,None,1,1.0643291473388672,706.6765999794006,None,707.8437659740448,None,708.8489668369293,709.204423904419,708.8489668369293,709.204423904419,707.8437659740448,None,707.8437659740448,None,707.8437659740448,None,350,450,1,True,316.2496089935303,-1.0,-1,713.0474100112915,None,pp_19b,clamp,icub,2022_Jan_10_0924,exp,2021.2.3,59.96463000902121,
left,go,1,0,1,0,10,2,62,0,713.5777468681335,None,1,0.6240799427032471,713.5777468681335,None,714.3130738735199,None,715.2938349246979,715.6494448184967,715.2938349246979,715.6494448184967,714.3130738735199,None,714.3130738735199,None,714.3130738735199,None,-1,-1,1,True,348.9091396331787,572.2730159759521,left,717.0978028774261,None,pp_19b,clamp,icub,2022_Jan_10_0924,exp,2021.2.3,59.96463000902121,
left,stop,1,0,1,0,10,3,63,2,717.6074628829956,None,1,0.3489091396331787,717.6074628829956,None,718.0843198299408,None,719.0850479602814,719.444611787796,719.0850479602814,719.444611787796,718.0843198299408,None,718.0843198299408,None,718.0843198299408,None,400,450,1,True,160.43877601623535,-1.0,-1,723.122083902359,None,pp_19b,clamp,icub,2022_Jan_10_0924,exp,2021.2.3,59.96463000902121,
right,stop,1,0,1,0,10,4,64,5,723.6559579372406,None,1,0.8788158893585205,723.6559579372406,None,724.6397099494934,None,725.6159238815308,725.9661610126495,725.6159238815308,725.9661610126495,724.6397099494934,None,724.6397099494934,None,724.6397099494934,None,450,450,0,True,236.88197135925293,479.2795181274414,right,727.24560379982,None,pp_19b,clamp,icub,2022_Jan_10_0924,exp,2021.2.3,59.96463000902121,
left,go,1,0,1,0,10,5,65,0,727.750296831131,None,1,0.613178014755249,727.750296831131,None,728.4774107933044,None,729.499223947525,729.8521637916565,729.499223947525,729.8521637916565,728.4774107933044,None,728.4774107933044,None,728.4774107933044,None,-1,-1,1,True,250.54383277893066,730.8840751647949,left,731.3615469932556,None,pp_19b,clamp,icub,2022_Jan_10_0924,exp,2021.2.3,59.96463000902121,
right,go,1,0,1,0,11,0,66,4,731.8818619251251,None,1,0.4315309524536133,731.8818619251251,None,732.4142768383026,None,733.4161899089813,733.7617738246918,733.4161899089813,733.7617738246918,732.4142768383026,None,732.4142768383026,None,732.4142768383026,None,-1,-1,1,True,152.11915969848633,530.7178497314453,right,734.970559835434,None,pp_19b,clamp,icub,2022_Jan_10_0924,exp,2021.2.3,59.96463000902121,
left,go,1,0,1,0,11,1,67,1,735.4775319099426,None,1,0.27195286750793457,735.4775319099426,None,735.8348808288574,None,736.864040851593,737.2114160060883,736.864040851593,737.2114160060883,735.8348808288574,None,735.8348808288574,None,735.8348808288574,None,-1,-1,1,True,174.42560195922852,618.2096004486084,left,738.5324158668518,None,pp_19b,clamp,icub,2022_Jan_10_0924,exp,2021.2.3,59.96463000902121,
right,go,1,0,1,0,11,2,68,3,739.067656993866,None,1,0.20986700057983398,739.067656993866,None,739.3629548549652,None,740.3823719024658,740.7446558475494,740.3823719024658,740.7446558475494,739.3629548549652,None,739.3629548549652,None,739.3629548549652,None,-1,-1,1,True,145.13897895812988,582.9763412475586,right,741.9604258537292,None,pp_19b,clamp,icub,2022_Jan_10_0924,exp,2021.2.3,59.96463000902121,
left,go,1,0,1,0,11,3,69,1,742.4819269180298,None,1,0.19012808799743652,742.4819269180298,None,742.7763628959656,None,743.7994749546051,744.1482348442078,743.7994749546051,744.1482348442078,742.7763628959656,None,742.7763628959656,None,742.7763628959656,None,-1,-1,1,True,255.7075023651123,556.9624900817871,left,745.4635539054871,None,pp_19b,clamp,icub,2022_Jan_10_0924,exp,2021.2.3,59.96463000902121,
left,go,1,0,1,0,11,4,70,1,745.9664449691772,None,1,0.40245890617370605,745.9664449691772,None,746.5068027973175,None,747.5195088386536,747.8669188022614,747.5195088386536,747.8669188022614,746.5068027973175,None,746.5068027973175,None,746.5068027973175,None,-1,-1,1,True,77.58092880249023,667.6993370056152,left,749.1415460109711,None,pp_19b,clamp,icub,2022_Jan_10_0924,exp,2021.2.3,59.96463000902121,
left,stop,1,0,1,0,11,5,71,2,749.6620810031891,None,1,0.356813907623291,749.6620810031891,None,750.1444787979126,None,751.1562798023224,751.5200018882751,751.1562798023224,751.5200018882751,750.1444787979126,None,750.1444787979126,None,750.1444787979126,None,450,400,1,True,185.55307388305664,-1.0,-1,755.2338759899139,None,pp_19b,clamp,icub,2022_Jan_10_0924,exp,2021.2.3,59.96463000902121,
right,stop,1,0,1,0,12,0,72,5,755.7647428512573,None,1,1.4298021793365479,755.7647428512573,None,757.3044888973236,None,758.2850539684296,758.6487607955933,758.2850539684296,758.6487607955933,757.3044888973236,None,757.3044888973236,None,757.3044888973236,None,500,400,0,True,288.3150577545166,516.6277885437012,right,759.9778809547424,None,pp_19b,clamp,icub,2022_Jan_10_0924,exp,2021.2.3,59.96463000902121,
left,go,1,0,1,0,12,1,73,1,760.5009598731995,None,1,0.7520318031311035,760.5009598731995,None,761.3762819766998,None,762.3692338466644,762.7221930027008,762.3692338466644,762.7221930027008,761.3762819766998,None,761.3762819766998,None,761.3762819766998,None,-1,-1,1,True,235.86797714233398,765.8603191375732,left,764.2918608188629,None,pp_19b,clamp,icub,2022_Jan_10_0924,exp,2021.2.3,59.96463000902121,
right,go,1,0,1,0,12,2,74,4,764.820051908493,None,1,0.31415510177612305,764.820051908493,None,765.2410409450531,None,766.2395458221436,766.5891699790955,766.2395458221436,766.5891699790955,765.2410409450531,None,765.2410409450531,None,765.2410409450531,None,-1,-1,1,True,209.98549461364746,600.0614166259766,right,767.9296989440918,None,pp_19b,clamp,icub,2022_Jan_10_0924,exp,2021.2.3,59.96463000902121,
left,go,1,0,1,0,12,3,75,0,768.4471099376678,None,1,0.3736379146575928,768.4471099376678,None,768.9000818729401,None,769.8997387886047,770.244824886322,769.8997387886047,770.244824886322,768.9000818729401,None,768.9000818729401,None,768.9000818729401,None,-1,-1,1,True,229.55560684204102,550.0292778015137,left,771.5904839038849,None,pp_19b,clamp,icub,2022_Jan_10_0924,exp,2021.2.3,59.96463000902121,
right,go,1,0,1,0,12,4,76,3,772.1009728908539,None,1,0.37500715255737305,772.1009728908539,None,772.580002784729,None,773.5916728973389,773.9541988372803,773.5916728973389,773.9541988372803,772.580002784729,None,772.580002784729,None,772.580002784729,None,-1,-1,1,True,215.14296531677246,552.579402923584,right,775.2502868175507,None,pp_19b,clamp,icub,2022_Jan_10_0924,exp,2021.2.3,59.96463000902121,
right,go,1,0,1,0,12,5,77,4,775.784453868866,None,1,0.46448493003845215,775.784453868866,None,776.3293039798737,None,777.3400399684906,777.6871018409729,777.3400399684906,777.6871018409729,776.3293039798737,None,776.3293039798737,None,776.3293039798737,None,-1,-1,1,True,256.105899810791,529.8271179199219,right,778.9998059272766,None,pp_19b,clamp,icub,2022_Jan_10_0924,exp,2021.2.3,59.96463000902121,
right,go,2,0,2,0,0,0,0,3,794.1568319797516,None,1,15.678923845291138,794.1568319797516,None,809.9365258216858,None,810.9485969543457,811.277186870575,810.9485969543457,811.277186870575,809.9365258216858,None,809.9365258216858,None,809.9365258216858,None,-1,-1,1,True,283.7104797363281,514.8284435272217,right,812.6101698875427,None,pp_19b,clamp,icub,2022_Jan_10_0924,exp,2021.2.3,59.96463000902121,
left,go,2,0,2,0,0,1,1,1,813.1133689880371,None,1,0.33822202682495117,813.1133689880371,None,813.5320768356323,None,814.5395557880402,814.8996047973633,814.5395557880402,814.8996047973633,813.5320768356323,None,813.5320768356323,None,813.5320768356323,None,-1,-1,1,True,159.0573787689209,517.8508758544922,left,816.0952548980713,None,pp_19b,clamp,icub,2022_Jan_10_0924,exp,2021.2.3,59.96463000902121,
right,go,2,0,2,0,0,2,2,4,816.6149158477783,None,1,0.38170599937438965,816.6149158477783,None,817.0969638824463,None,818.09889793396,818.4558629989624,818.09889793396,818.4558629989624,817.0969638824463,None,817.0969638824463,None,817.0969638824463,None,,,0,False,-1.0,-1.0,-1,818.9049229621887,None,pp_19b,clamp,icub,2022_Jan_10_0924,exp,2021.2.3,59.96463000902121,
left,go,2,0,2,0,0,3,3,0,819.4325408935547,None,1,0.7453010082244873,819.4325408935547,None,820.2704639434814,None,821.2757389545441,821.6174259185791,821.2757389545441,821.6174259185791,820.2704639434814,None,820.2704639434814,None,820.2704639434814,None,,,0,False,3000.8742809295654,-1.0,-1,825.1780619621277,None,pp_19b,clamp,icub,2022_Jan_10_0924,exp,2021.2.3,59.96463000902121,
left,stop,2,0,2,0,0,4,4,2,825.7093768119812,None,1,0.8624370098114014,825.7093768119812,None,826.6849858760834,None,827.6869349479675,828.0454008579254,827.6869349479675,828.0454008579254,826.6849858760834,None,826.6849858760834,None,826.6849858760834,None,500,350,0,True,348.4675884246826,594.8581695556641,left,829.514417886734,None,pp_19b,clamp,icub,2022_Jan_10_0924,exp,2021.2.3,59.96463000902121,
left,go,2,0,2,0,0,5,5,1,830.0177137851715,None,1,0.9772381782531738,830.0177137851715,None,831.114275932312,None,832.1283049583435,832.4942150115967,832.1283049583435,832.4942150115967,831.114275932312,None,831.114275932312,None,831.114275932312,None,-1,-1,1,True,222.83458709716797,712.6016616821289,left,833.9505889415741,None,pp_19b,clamp,icub,2022_Jan_10_0924,exp,2021.2.3,59.96463000902121,
right,stop,2,0,2,0,1,0,6,5,834.4546599388123,None,1,0.4720330238342285,834.4546599388123,None,835.0545618534088,None,836.0748097896576,836.4103109836578,836.0748097896576,836.4103109836578,835.0545618534088,None,835.0545618534088,None,835.0545618534088,None,450,350,1,True,164.17598724365234,-1.0,-1,840.1224639415741,None,pp_19b,clamp,icub,2022_Jan_10_0924,exp,2021.2.3,59.96463000902121,
left,go,2,0,2,0,1,1,7,0,840.6555199623108,None,1,0.2699301242828369,840.6555199623108,None,841.0198149681091,None,842.0005588531494,842.3632628917694,842.0005588531494,842.3632628917694,841.0198149681091,None,841.0198149681091,None,841.0198149681091,None,-1,-1,1,True,184.66925621032715,598.5674858093262,left,843.6793749332428,None,pp_19b,clamp,icub,2022_Jan_10_0924,exp,2021.2.3,59.96463000902121,
left,stop,2,0,2,0,1,2,8,2,844.1962189674377,None,1,0.5764110088348389,844.1962189674377,None,844.8633198738098,None,845.8742909431458,846.2219159603119,845.8742909431458,846.2219159603119,844.8633198738098,None,844.8633198738098,None,844.8633198738098,None,450,400,1,True,270.8418369293213,-1.0,-1,850.0159888267517,None,pp_19b,clamp,icub,2022_Jan_10_0924,exp,2021.2.3,59.96463000902121,
left,go,2,0,2,0,1,3,9,1,850.546199798584,None,1,0.7119731903076172,850.546199798584,None,851.3450009822845,None,852.3221228122711,852.6805868148804,852.3221228122711,852.6805868148804,851.3450009822845,None,851.3450009822845,None,851.3450009822845,None,-1,-1,1,True,246.11186981201172,643.864631652832,left,854.1021649837494,None,pp_19b,clamp,icub,2022_Jan_10_0924,exp,2021.2.3,59.96463000902121,
left,go,2,0,2,0,1,4,10,1,854.6028609275818,None,1,0.6597208976745605,854.6028609275818,None,855.391441822052,None,856.3973808288574,856.7543377876282,856.3973808288574,856.7543377876282,855.391441822052,None,855.391441822052,None,855.391441822052,None,-1,-1,1,True,299.93295669555664,650.4507064819336,left,858.2292189598083,None,pp_19b,clamp,icub,2022_Jan_10_0924,exp,2021.2.3,59.96463000902121,
right,go,2,0,2,0,1,5,11,3,858.7635238170624,None,1,0.5670409202575684,858.7635238170624,None,859.4312617778778,None,860.4261569976807,860.7762768268585,860.4261569976807,860.7762768268585,859.4312617778778,None,859.4312617778778,None,859.4312617778778,None,-1,-1,1,True,251.68323516845703,676.6667366027832,right,862.234710931778,None,pp_19b,clamp,icub,2022_Jan_10_0924,exp,2021.2.3,59.96463000902121,
right,go,2,0,2,0,2,0,12,4,862.7454659938812,None,1,0.6781179904937744,862.7454659938812,None,863.534334897995,None,864.5308928489685,864.8789908885956,864.5308928489685,864.8789908885956,863.534334897995,None,863.534334897995,None,863.534334897995,None,-1,-1,1,True,298.8710403442383,669.9047088623047,right,866.4080219268799,None,pp_19b,clamp,icub,2022_Jan_10_0924,exp,2021.2.3,59.96463000902121,
left,go,2,0,2,0,2,1,13,1,866.9428009986877,None,1,0.6847119331359863,866.9428009986877,None,867.7333347797394,None,868.7375528812408,869.0952258110046,868.7375528812408,869.0952258110046,867.7333347797394,None,867.7333347797394,None,867.7333347797394,None,-1,-1,1,True,230.96299171447754,618.5531616210938,left,870.4654099941254,None,pp_19b,clamp,icub,2022_Jan_10_0924,exp,2021.2.3,59.96463000902121,
left,stop,2,0,2,0,2,2,14,2,870.9870798587799,None,1,0.5493271350860596,870.9870798587799,None,871.6499807834625,None,872.6679158210754,873.0163547992706,872.6679158210754,873.0163547992706,871.6499807834625,None,871.6499807834625,None,871.6499807834625,None,500,400,0,True,340.0273323059082,657.4411392211914,left,874.5502758026123,None,pp_19b,clamp,icub,2022_Jan_10_0924,exp,2021.2.3,59.96463000902121,
left,go,2,0,2,0,2,3,15,1,875.0685298442841,None,1,2.4869179725646973,875.0685298442841,None,877.6507070064545,None,878.6810858249664,879.0493769645691,878.6810858249664,879.0493769645691,877.6507070064545,None,877.6507070064545,None,877.6507070064545,None,-1,-1,1,True,325.6998062133789,607.6462268829346,left,880.4778017997742,None,pp_19b,clamp,icub,2022_Jan_10_0924,exp,2021.2.3,59.96463000902121,
left,stop,2,0,2,0,2,4,16,2,880.9852499961853,None,1,0.39221906661987305,880.9852499961853,None,881.4679667949677,None,882.4623417854309,882.8302459716797,882.4623417854309,882.8302459716797,881.4679667949677,None,881.4679667949677,None,881.4679667949677,None,450,400,0,True,78.89389991760254,662.6157760620117,left,884.0868837833405,None,pp_19b,clamp,icub,2022_Jan_10_0924,exp,2021.2.3,59.96463000902121,
right,go,2,0,2,0,2,5,17,3,884.5897929668427,None,1,2.233119010925293,884.5897929668427,None,886.923907995224,None,887.9595699310303,888.3157777786255,887.9595699310303,888.3157777786255,886.923907995224,None,886.923907995224,None,886.923907995224,None,-1,-1,1,True,222.27931022644043,509.22441482543945,right,889.5428597927094,None,pp_19b,clamp,icub,2022_Jan_10_0924,exp,2021.2.3,59.96463000902121,
left,go,2,0,2,0,3,0,18,0,890.0583219528198,None,1,0.5231139659881592,890.0583219528198,None,890.6619567871094,None,891.6630508899689,892.0294568538666,891.6630508899689,892.0294568538666,890.6619567871094,None,890.6619567871094,None,890.6619567871094,None,-1,-1,1,True,109.7860336303711,709.1748714447021,left,893.3674919605255,None,pp_19b,clamp,icub,2022_Jan_10_0924,exp,2021.2.3,59.96463000902121,
left,go,2,0,2,0,3,1,19,1,893.869325876236,None,1,0.40193915367126465,893.869325876236,None,894.3519217967987,None,895.362765789032,895.7217888832092,895.362765789032,895.7217888832092,894.3519217967987,None,894.3519217967987,None,894.3519217967987,None,-1,-1,1,True,234.94529724121094,608.536958694458,left,897.086847782135,None,pp_19b,clamp,icub,2022_Jan_10_0924,exp,2021.2.3,59.96463000902121,
right,go,2,0,2,0,3,2,20,3,897.6038439273834,None,1,0.4517080783843994,897.6038439273834,None,898.1450347900391,None,899.1378889083862,899.4838209152222,899.1378889083862,899.4838209152222,898.1450347900391,None,898.1450347900391,None,898.1450347900391,None,-1,-1,1,True,54.85939979553223,595.649003982544,right,900.6656379699707,None,pp_19b,clamp,icub,2022_Jan_10_0924,exp,2021.2.3,59.96463000902121,
right,stop,2,0,2,0,3,3,21,5,901.1943647861481,None,1,0.4032630920410156,901.1943647861481,None,901.6779148578644,None,902.7043788433075,903.0586898326874,902.7043788433075,903.0586898326874,901.6779148578644,None,901.6779148578644,None,901.6779148578644,None,400,400,0,True,228.29127311706543,478.9235591888428,right,904.2606189250946,None,pp_19b,clamp,icub,2022_Jan_10_0924,exp,2021.2.3,59.96463000902121,
right,go,2,0,2,0,3,4,22,4,904.7645537853241,None,1,0.4600648880004883,904.7645537853241,None,905.3101859092712,None,906.3415138721466,906.6984598636627,906.3415138721466,906.6984598636627,905.3101859092712,None,905.3101859092712,None,905.3101859092712,None,-1,-1,1,True,80.04307746887207,520.8804607391357,right,907.793771982193,None,pp_19b,clamp,icub,2022_Jan_10_0924,exp,2021.2.3,59.96463000902121,
right,go,2,0,2,0,3,5,23,4,908.3074679374695,None,1,0.3877830505371094,908.3074679374695,None,908.7875368595123,None,909.7803130149841,910.1340618133545,909.7803130149841,910.1340618133545,908.7875368595123,None,908.7875368595123,None,908.7875368595123,None,-1,-1,1,True,56.29444122314453,657.4056148529053,right,911.3793318271637,None,pp_19b,clamp,icub,2022_Jan_10_0924,exp,2021.2.3,59.96463000902121,
left,go,2,0,2,0,4,0,24,0,911.9011609554291,None,1,0.30621886253356934,911.9011609554291,None,912.3178308010101,None,913.3241767883301,913.6796507835388,913.3241767883301,913.6796507835388,912.3178308010101,None,912.3178308010101,None,912.3178308010101,None,-1,-1,1,True,274.9059200286865,632.6794624328613,left,915.1159830093384,None,pp_19b,clamp,icub,2022_Jan_10_0924,exp,2021.2.3,59.96463000902121,
left,go,2,0,2,0,4,1,25,1,915.6288077831268,None,1,0.40461301803588867,915.6288077831268,None,916.1086578369141,None,917.1379950046539,917.4886767864227,917.1379950046539,917.4886767864227,916.1086578369141,None,916.1086578369141,None,916.1086578369141,None,-1,-1,1,True,289.93773460388184,511.2738609313965,left,918.8121058940887,None,pp_19b,clamp,icub,2022_Jan_10_0924,exp,2021.2.3,59.96463000902121,
right,stop,2,0,2,0,4,2,26,5,919.311774969101,None,1,0.30269908905029297,919.311774969101,None,919.7290318012238,None,920.7520179748535,921.1150598526001,920.7520179748535,921.1150598526001,919.7290318012238,None,919.7290318012238,None,919.7290318012238,None,400,350,0,True,286.71908378601074,512.1622085571289,right,922.4080369472504,None,pp_19b,clamp,icub,2022_Jan_10_0924,exp,2021.2.3,59.96463000902121,
right,go,2,0,2,0,4,3,27,3,922.9276239871979,None,1,0.6585898399353027,922.9276239871979,None,923.7091739177704,None,924.7212779521942,925.0695188045502,924.7212779521942,925.0695188045502,923.7091739177704,None,923.7091739177704,None,923.7091739177704,None,-1,-1,1,True,267.28296279907227,494.9071407318115,right,926.3654978275299,None,pp_19b,clamp,icub,2022_Jan_10_0924,exp,2021.2.3,59.96463000902121,
right,stop,2,0,2,0,4,4,28,5,926.8856217861176,None,1,0.2886669635772705,926.8856217861176,None,927.3019669055939,None,928.3190069198608,928.6718909740448,928.3190069198608,928.6718909740448,927.3019669055939,None,927.3019669055939,None,927.3019669055939,None,400,300,1,True,207.07273483276367,-1.0,-1,932.4086480140686,None,pp_19b,clamp,icub,2022_Jan_10_0924,exp,2021.2.3,59.96463000902121,
left,stop,2,0,2,0,4,5,29,2,932.9407308101654,None,1,0.6289801597595215,932.9407308101654,None,933.6754357814789,None,934.6591258049011,935.0163109302521,934.6591258049011,935.0163109302521,933.6754357814789,None,933.6754357814789,None,933.6754357814789,None,400,350,0,True,258.3439350128174,523.3168601989746,left,936.3339469432831,None,pp_19b,clamp,icub,2022_Jan_10_0924,exp,2021.2.3,59.96463000902121,
left,go,2,0,2,0,5,0,30,0,936.848711013794,None,1,1.7036159038543701,936.848711013794,None,938.6855509281158,None,939.7057797908783,940.0532178878784,939.7057797908783,940.0532178878784,938.6855509281158,None,938.6855509281158,None,938.6855509281158,None,-1,-1,1,True,232.28216171264648,697.2174644470215,left,941.5159118175507,None,pp_19b,clamp,icub,2022_Jan_10_0924,exp,2021.2.3,59.96463000902121,
left,go,2,0,2,0,5,1,31,0,942.0364418029785,None,1,0.38770008087158203,942.0364418029785,None,942.5187819004059,None,943.5216519832611,943.8676009178162,943.5216519832611,943.8676009178162,942.5187819004059,None,942.5187819004059,None,942.5187819004059,None,-1,-1,1,True,162.6887321472168,720.3099727630615,left,945.2703819274902,None,pp_19b,clamp,icub,2022_Jan_10_0924,exp,2021.2.3,59.96463000902121,
right,go,2,0,2,0,5,2,32,4,945.7962749004364,None,1,0.41125011444091797,945.7962749004364,None,946.3317718505859,None,947.3635590076447,947.7339079380035,947.3635590076447,947.7339079380035,946.3317718505859,None,946.3317718505859,None,946.3317718505859,None,,,0,False,3001.033067703247,-1.0,-1,951.2183258533478,None,pp_19b,clamp,icub,2022_Jan_10_0924,exp,2021.2.3,59.96463000902121,
left,go,2,0,2,0,5,3,33,1,951.7119808197021,None,1,1.4760050773620605,951.7119808197021,None,953.3074088096619,None,954.3082978725433,954.6771519184113,954.3082978725433,954.6771519184113,953.3074088096619,None,953.3074088096619,None,953.3074088096619,None,-1,-1,1,True,326.6916275024414,571.7511177062988,left,956.1116008758545,None,pp_19b,clamp,icub,2022_Jan_10_0924,exp,2021.2.3,59.96463000902121,
left,stop,2,0,2,0,5,4,34,2,956.6429150104523,None,1,0.3400888442993164,956.6429150104523,None,957.0635368824005,None,958.0910677909851,958.4399528503418,958.0910677909851,958.4399528503418,957.0635368824005,None,957.0635368824005,None,957.0635368824005,None,350,350,1,True,294.2934036254883,-1.0,-1,962.2287719249725,None,pp_19b,clamp,icub,2022_Jan_10_0924,exp,2021.2.3,59.96463000902121,
left,go,2,0,2,0,5,5,35,1,962.7606317996979,None,1,0.5190880298614502,962.7606317996979,None,963.3731617927551,None,964.3436899185181,964.6870348453522,964.3436899185181,964.6870348453522,963.3731617927551,None,963.3731617927551,None,963.3731617927551,None,-1,-1,1,True,353.40142250061035,637.9928588867188,left,966.2492899894714,None,pp_19b,clamp,icub,2022_Jan_10_0924,exp,2021.2.3,59.96463000902121,
right,stop,2,0,2,0,6,0,36,5,966.7590508460999,None,1,0.5294010639190674,966.7590508460999,None,967.3639988899231,None,968.3605349063873,968.7162179946899,968.3605349063873,968.7162179946899,967.3639988899231,None,967.3639988899231,None,967.3639988899231,None,400,350,1,True,241.17374420166016,-1.0,-1,972.4762818813324,None,pp_19b,clamp,icub,2022_Jan_10_0924,exp,2021.2.3,59.96463000902121,
left,go,2,0,2,0,6,1,37,0,973.0088019371033,None,1,0.7659108638763428,973.0088019371033,None,973.8702719211578,None,974.875275850296,975.2290217876434,974.875275850296,975.2290217876434,973.8702719211578,None,973.8702719211578,None,973.8702719211578,None,-1,-1,1,True,45.78685760498047,597.6672172546387,left,976.4031908512115,None,pp_19b,clamp,icub,2022_Jan_10_0924,exp,2021.2.3,59.96463000902121,
right,go,2,0,2,0,6,2,38,3,976.9210338592529,None,1,0.3669748306274414,976.9210338592529,None,977.4020578861237,None,978.4261078834534,978.7487897872925,978.4261078834534,978.7487897872925,977.4020578861237,None,977.4020578861237,None,977.4020578861237,None,-1,-1,1,True,56.116342544555664,614.2654418945312,right,979.9826159477234,None,pp_19b,clamp,icub,2022_Jan_10_0924,exp,2021.2.3,59.96463000902121,
right,stop,2,0,2,0,6,3,39,5,980.4840958118439,None,1,0.5804150104522705,980.4840958118439,None,981.1502268314362,None,982.164186000824,982.5189428329468,982.164186000824,982.5189428329468,981.1502268314362,None,981.1502268314362,None,981.1502268314362,None,400,400,1,True,161.2389087677002,-1.0,-1,986.2121570110321,None,pp_19b,clamp,icub,2022_Jan_10_0924,exp,2021.2.3,59.96463000902121,
right,go,2,0,2,0,6,4,40,3,986.7435398101807,None,1,0.9299499988555908,986.7435398101807,None,987.7895438671112,None,988.761118888855,989.1237800121307,988.761118888855,989.1237800121307,987.7895438671112,None,987.7895438671112,None,987.7895438671112,None,-1,-1,1,True,273.8814353942871,530.0676822662354,right,990.4574959278107,None,pp_19b,clamp,icub,2022_Jan_10_0924,exp,2021.2.3,59.96463000902121,
right,go,2,0,2,0,6,5,41,4,990.986410856247,None,1,0.5985889434814453,990.986410856247,None,991.713045835495,None,992.7448987960815,993.1048109531403,992.7448987960815,993.1048109531403,991.713045835495,None,991.713045835495,None,991.713045835495,None,-1,-1,1,True,240.15474319458008,696.4125633239746,right,994.5265049934387,None,pp_19b,clamp,icub,2022_Jan_10_0924,exp,2021.2.3,59.96463000902121,
left,go,2,0,2,0,7,0,42,0,995.0436317920685,None,1,0.5803041458129883,995.0436317920685,None,995.7096087932587,None,996.7252609729767,997.0743908882141,996.7252609729767,997.0743908882141,995.7096087932587,None,995.7096087932587,None,995.7096087932587,None,-1,-1,1,True,368.21508407592773,596.928596496582,left,998.5713818073273,None,pp_19b,clamp,icub,2022_Jan_10_0924,exp,2021.2.3,59.96463000902121,
right,stop,2,0,2,0,7,1,43,5,999.070732831955,None,1,0.38910818099975586,999.070732831955,None,999.5503258705139,None,1000.5816118717194,1000.937246799469,1000.5816118717194,1000.937246799469,999.5503258705139,None,999.5503258705139,None,999.5503258705139,None,400,450,0,True,240.9532070159912,590.911865234375,right,1002.2950809001923,None,pp_19b,clamp,icub,2022_Jan_10_0924,exp,2021.2.3,59.96463000902121,
left,go,2,0,2,0,7,2,44,1,1002.7983858585358,None,1,1.0466740131378174,1002.7983858585358,None,1003.9584918022156,None,1004.9776029586792,1005.3243069648743,1004.9776029586792,1005.3243069648743,1003.9584918022156,None,1003.9584918022156,None,1003.9584918022156,None,-1,-1,1,True,212.27216720581055,578.5660743713379,left,1006.6380579471588,None,pp_19b,clamp,icub,2022_Jan_10_0924,exp,2021.2.3,59.96463000902121,
right,go,2,0,2,0,7,3,45,4,1007.1450119018555,None,1,0.3588540554046631,1007.1450119018555,None,1007.6272969245911,None,1008.6315789222717,1008.9798328876495,1008.6315789222717,1008.9798328876495,1007.6272969245911,None,1007.6272969245911,None,1007.6272969245911,None,-1,-1,1,True,390.6064033508301,450.6821632385254,right,1010.3527889251709,None,pp_19b,clamp,icub,2022_Jan_10_0924,exp,2021.2.3,59.96463000902121,
left,stop,2,0,2,0,7,4,46,2,1010.8697409629822,None,1,0.37508106231689453,1010.8697409629822,None,1011.3515977859497,None,1012.361713886261,1012.6890728473663,1012.361713886261,1012.6890728473663,1011.3515977859497,None,1011.3515977859497,None,1011.3515977859497,None,400,400,1,True,219.96116638183594,-1.0,-1,1016.478189945221,None,pp_19b,clamp,icub,2022_Jan_10_0924,exp,2021.2.3,59.96463000902121,
left,stop,2,0,2,0,7,5,47,2,1017.0092217922211,None,1,1.7861170768737793,1017.0092217922211,None,1018.9225199222565,None,1019.9089848995209,1020.2781689167023,1019.9089848995209,1020.2781689167023,1018.9225199222565,None,1018.9225199222565,None,1018.9225199222565,None,450,400,1,True,287.14561462402344,-1.0,-1,1024.098701953888,None,pp_19b,clamp,icub,2022_Jan_10_0924,exp,2021.2.3,59.96463000902121,
right,stop,2,0,2,0,8,0,48,5,1024.6310868263245,None,1,1.2642369270324707,1024.6310868263245,None,1025.9859018325806,None,1026.9606997966766,1027.3234667778015,1026.9606997966766,1027.3234667778015,1025.9859018325806,None,1025.9859018325806,None,1025.9859018325806,None,500,400,0,True,164.90817070007324,578.0782699584961,right,1028.637640953064,None,pp_19b,clamp,icub,2022_Jan_10_0924,exp,2021.2.3,59.96463000902121,
right,stop,2,0,2,0,8,1,49,5,1029.1585948467255,None,1,2.4913110733032227,1029.1585948467255,None,1031.7355418205261,None,1032.7596538066864,1033.1152079105377,1032.7596538066864,1033.1152079105377,1031.7355418205261,None,1031.7355418205261,None,1031.7355418205261,None,500,350,1,True,374.9854564666748,-1.0,-1,1037.0162959098816,None,pp_19b,clamp,icub,2022_Jan_10_0924,exp,2021.2.3,59.96463000902121,
right,go,2,0,2,0,8,2,50,4,1037.5107548236847,None,1,0.5314240455627441,1037.5107548236847,None,1038.1843869686127,None,1039.163417816162,1039.5277109146118,1039.163417816162,1039.5277109146118,1038.1843869686127,None,1038.1843869686127,None,1038.1843869686127,None,-1,-1,1,True,286.41271591186523,579.6942710876465,right,1040.9261989593506,None,pp_19b,clamp,icub,2022_Jan_10_0924,exp,2021.2.3,59.96463000902121,
right,go,2,0,2,0,8,3,51,3,1041.4555399417877,None,1,0.399899959564209,1041.4555399417877,None,1041.9360938072205,None,1042.9402978420258,1043.2978429794312,1042.9402978420258,1043.2978429794312,1041.9360938072205,None,1041.9360938072205,None,1041.9360938072205,None,-1,-1,1,True,198.96912574768066,543.2357788085938,right,1044.5689837932587,None,pp_19b,clamp,icub,2022_Jan_10_0924,exp,2021.2.3,59.96463000902121,
left,go,2,0,2,0,8,4,52,0,1045.0899939537048,None,1,0.3506309986114502,1045.0899939537048,None,1045.5694389343262,None,1046.572319984436,1046.927738904953,1046.572319984436,1046.927738904953,1045.5694389343262,None,1045.5694389343262,None,1045.5694389343262,None,-1,-1,1,True,212.95928955078125,671.2729930877686,left,1048.3352408409119,None,pp_19b,clamp,icub,2022_Jan_10_0924,exp,2021.2.3,59.96463000902121,
left,stop,2,0,2,0,8,5,53,2,1048.8440968990326,None,1,0.38912105560302734,1048.8440968990326,None,1049.3242888450623,None,1050.3216099739075,1050.6607339382172,1050.3216099739075,1050.6607339382172,1049.3242888450623,None,1049.3242888450623,None,1049.3242888450623,None,500,400,0,True,210.91270446777344,623.0125427246094,left,1052.064353942871,None,pp_19b,clamp,icub,2022_Jan_10_0924,exp,2021.2.3,59.96463000902121,
left,stop,2,0,2,0,9,0,54,2,1052.5779287815094,None,1,2.2035858631134033,1052.5779287815094,None,1054.909807920456,None,1055.9057939052582,1056.2584609985352,1055.9057939052582,1056.2584609985352,1054.909807920456,None,1054.909807920456,None,1054.909807920456,None,450,400,0,True,202.25977897644043,586.418867111206,left,1057.5743808746338,None,pp_19b,clamp,icub,2022_Jan_10_0924,exp,2021.2.3,59.96463000902121,
right,stop,2,0,2,0,9,1,55,5,1058.0919308662415,None,1,1.777569055557251,1058.0919308662415,None,1059.9936709403992,None,1061.0101628303528,1061.3682208061218,1061.0101628303528,1061.3682208061218,1059.9936709403992,None,1059.9936709403992,None,1059.9936709403992,None,400,400,0,True,239.69507217407227,432.67226219177246,right,1062.56866979599,None,pp_19b,clamp,icub,2022_Jan_10_0924,exp,2021.2.3,59.96463000902121,
left,stop,2,0,2,0,9,2,56,2,1063.0689868927002,None,1,0.7403390407562256,1063.0689868927002,None,1063.9237229824066,None,1064.924798965454,1065.277450799942,1064.924798965454,1065.277450799942,1063.9237229824066,None,1063.9237229824066,None,1063.9237229824066,None,400,350,0,True,291.71299934387207,550.6441593170166,left,1066.672653913498,None,pp_19b,clamp,icub,2022_Jan_10_0924,exp,2021.2.3,59.96463000902121,
right,go,2,0,2,0,9,3,57,4,1067.1902408599854,None,1,0.4812450408935547,1067.1902408599854,None,1067.795504808426,None,1068.7917399406433,1069.1472198963165,1068.7917399406433,1069.1472198963165,1067.795504808426,None,1067.795504808426,None,1067.795504808426,None,-1,-1,1,True,352.9202938079834,437.41798400878906,right,1070.4734909534454,None,pp_19b,clamp,icub,2022_Jan_10_0924,exp,2021.2.3,59.96463000902121,
right,stop,2,0,2,0,9,4,58,5,1070.9958310127258,None,1,0.14724302291870117,1070.9958310127258,None,1071.228420972824,None,1072.2482948303223,1072.604740858078,1072.2482948303223,1072.604740858078,1071.228420972824,None,1071.228420972824,None,1071.228420972824,None,,,0,False,3000.2777576446533,-1.0,-1,1076.137865781784,None,pp_19b,clamp,icub,2022_Jan_10_0924,exp,2021.2.3,59.96463000902121,
right,go,2,0,2,0,9,5,59,3,1076.6652629375458,None,1,1.6344330310821533,1076.6652629375458,None,1078.3854229450226,None,1079.39763879776,1079.7315378189087,1079.39763879776,1079.7315378189087,1078.3854229450226,None,1078.3854229450226,None,1078.3854229450226,None,-1,-1,1,True,278.9630889892578,489.6125793457031,right,1081.0202269554138,None,pp_19b,clamp,icub,2022_Jan_10_0924,exp,2021.2.3,59.96463000902121,
left,stop,2,0,2,0,10,0,60,2,1081.5488629341125,None,1,0.44451284408569336,1081.5488629341125,None,1082.094938993454,None,1083.107836008072,1083.4706900119781,1083.107836008072,1083.4706900119781,1082.094938993454,None,1082.094938993454,None,1082.094938993454,None,,,0,False,3000.2994537353516,-1.0,-1,1087.0003769397736,None,pp_19b,clamp,icub,2022_Jan_10_0924,exp,2021.2.3,59.96463000902121,
right,go,2,0,2,0,10,1,61,3,1087.4945659637451,None,1,1.0194480419158936,1087.4945659637451,None,1088.59437084198,None,1089.5968089103699,1089.958834886551,1089.5968089103699,1089.958834886551,1088.59437084198,None,1088.59437084198,None,1088.59437084198,None,-1,-1,1,True,285.25710105895996,443.2845115661621,right,1091.2195188999176,None,pp_19b,clamp,icub,2022_Jan_10_0924,exp,2021.2.3,59.96463000902121,
right,go,2,0,2,0,10,2,62,4,1091.7226178646088,None,1,0.394672155380249,1091.7226178646088,None,1092.2031989097595,None,1093.2168078422546,1093.568571805954,1093.2168078422546,1093.568571805954,1092.2031989097595,None,1092.2031989097595,None,1092.2031989097595,None,-1,-1,1,True,268.59545707702637,475.91423988342285,right,1094.8459658622742,None,pp_19b,clamp,icub,2022_Jan_10_0924,exp,2021.2.3,59.96463000902121,
right,go,2,0,2,0,10,3,63,3,1095.3518579006195,None,1,0.548306941986084,1095.3518579006195,None,1096.018590927124,None,1097.0463860034943,1097.3810877799988,1097.0463860034943,1097.3810877799988,1096.018590927124,None,1096.018590927124,None,1096.018590927124,None,-1,-1,1,True,208.36710929870605,480.56554794311523,right,1098.5884408950806,None,pp_19b,clamp,icub,2022_Jan_10_0924,exp,2021.2.3,59.96463000902121,
right,stop,2,0,2,0,10,4,64,5,1099.0880808830261,None,1,0.3624460697174072,1099.0880808830261,None,1099.5712699890137,None,1100.5623869895935,1100.9107718467712,1100.5623869895935,1100.9107718467712,1099.5712699890137,None,1099.5712699890137,None,1099.5712699890137,None,350,350,0,True,146.99697494506836,519.3994045257568,right,1102.149118900299,None,pp_19b,clamp,icub,2022_Jan_10_0924,exp,2021.2.3,59.96463000902121,
left,go,2,0,2,0,10,5,65,0,1102.6704030036926,None,1,1.3296289443969727,1102.6704030036926,None,1104.0804748535156,None,1105.0983238220215,1105.4551389217377,1105.0983238220215,1105.4551389217377,1104.0804748535156,None,1104.0804748535156,None,1104.0804748535156,None,-1,-1,1,True,258.6343288421631,549.9567985534668,left,1106.800875902176,None,pp_19b,clamp,icub,2022_Jan_10_0924,exp,2021.2.3,59.96463000902121,
right,stop,2,0,2,0,11,0,66,5,1107.2961778640747,None,1,0.4069559574127197,1107.2961778640747,None,1107.836182832718,None,1108.8379218578339,1109.1855108737946,1108.8379218578339,1109.1855108737946,1107.836182832718,None,1107.836182832718,None,1107.836182832718,None,,,0,False,-1.0,-1.0,-1,1109.7083640098572,None,pp_19b,clamp,icub,2022_Jan_10_0924,exp,2021.2.3,59.96463000902121,
left,go,2,0,2,0,11,1,67,0,1110.222295999527,None,1,1.202923059463501,1110.222295999527,None,1111.5419278144836,None,1112.5310838222504,1112.8820037841797,1112.5310838222504,1112.8820037841797,1111.5419278144836,None,1111.5419278144836,None,1111.5419278144836,None,-1,-1,1,True,199.7075080871582,540.5318737030029,left,1114.198030948639,None,pp_19b,clamp,icub,2022_Jan_10_0924,exp,2021.2.3,59.96463000902121,
right,go,2,0,2,0,11,2,68,3,1114.6967070102692,None,1,0.4714930057525635,1114.6967070102692,None,1115.2974758148193,None,1116.3248298168182,1116.6658689975739,1116.3248298168182,1116.6658689975739,1115.2974758148193,None,1115.2974758148193,None,1115.2974758148193,None,-1,-1,1,True,177.3817539215088,447.0508098602295,right,1117.7945837974548,None,pp_19b,clamp,icub,2022_Jan_10_0924,exp,2021.2.3,59.96463000902121,
right,go,2,0,2,0,11,3,69,3,1118.2992417812347,None,1,0.5380759239196777,1118.2992417812347,None,1118.9602839946747,None,1119.9629199504852,1120.3294568061829,1119.9629199504852,1120.3294568061829,1118.9602839946747,None,1118.9602839946747,None,1118.9602839946747,None,-1,-1,1,True,246.99687957763672,633.7709426879883,right,1121.7415130138397,None,pp_19b,clamp,icub,2022_Jan_10_0924,exp,2021.2.3,59.96463000902121,
left,go,2,0,2,0,11,4,70,1,1122.2578558921814,None,1,0.5563089847564697,1122.2578558921814,None,1122.9262509346008,None,1123.9214057922363,1124.2852778434753,1123.9214057922363,1124.2852778434753,1122.9262509346008,None,1122.9262509346008,None,1122.9262509346008,None,-1,-1,1,True,239.61663246154785,610.9030246734619,left,1125.6475667953491,None,pp_19b,clamp,icub,2022_Jan_10_0924,exp,2021.2.3,59.96463000902121,
left,go,2,0,2,0,11,5,71,1,1126.1577908992767,None,1,0.46450090408325195,1126.1577908992767,None,1126.7027008533478,None,1127.7203299999237,1128.0818898677826,1127.7203299999237,1128.0818898677826,1126.7027008533478,None,1126.7027008533478,None,1126.7027008533478,None,-1,-1,1,True,153.46240997314453,543.9491271972656,left,1129.3079509735107,None,pp_19b,clamp,icub,2022_Jan_10_0924,exp,2021.2.3,59.96463000902121,
left,go,2,0,2,0,12,0,72,0,1129.8399620056152,None,1,0.4112231731414795,1129.8399620056152,None,1130.3801679611206,None,1131.4007968902588,1131.756464958191,1131.4007968902588,1131.756464958191,1130.3801679611206,None,1130.3801679611206,None,1130.3801679611206,None,-1,-1,1,True,273.10943603515625,532.646656036377,left,1133.0905168056488,None,pp_19b,clamp,icub,2022_Jan_10_0924,exp,2021.2.3,59.96463000902121,
right,go,2,0,2,0,12,1,73,4,1133.6060359477997,None,1,0.3338470458984375,1133.6060359477997,None,1134.0253047943115,None,1135.0213589668274,1135.3880219459534,1135.0213589668274,1135.3880219459534,1134.0253047943115,None,1134.0253047943115,None,1134.0253047943115,None,-1,-1,1,True,240.96274375915527,375.8409023284912,right,1136.535437822342,None,pp_19b,clamp,icub,2022_Jan_10_0924,exp,2021.2.3,59.96463000902121,
right,go,2,0,2,0,12,2,74,4,1137.0648448467255,None,1,0.6021451950073242,1137.0648448467255,None,1137.7905979156494,None,1138.7972009181976,1139.1365039348602,1138.7972009181976,1139.1365039348602,1137.7905979156494,None,1137.7905979156494,None,1137.7905979156494,None,-1,-1,1,True,237.75720596313477,488.6493682861328,right,1140.3893518447876,None,pp_19b,clamp,icub,2022_Jan_10_0924,exp,2021.2.3,59.96463000902121,
left,go,2,0,2,0,12,3,75,0,1140.90887093544,None,1,0.3221321105957031,1140.90887093544,None,1141.3324859142303,None,1142.346676826477,1142.6921708583832,1142.346676826477,1142.6921708583832,1141.3324859142303,None,1141.3324859142303,None,1141.3324859142303,None,-1,-1,1,True,252.08520889282227,573.9386081695557,left,1144.0446808338165,None,pp_19b,clamp,icub,2022_Jan_10_0924,exp,2021.2.3,59.96463000902121,
right,go,2,0,2,0,12,4,76,4,1144.545509815216,None,1,0.41657304763793945,1144.545509815216,None,1145.0855848789215,None,1146.0891108512878,1146.4474878311157,1146.0891108512878,1146.4474878311157,1145.0855848789215,None,1145.0855848789215,None,1145.0855848789215,None,-1,-1,1,True,217.1652317047119,485.9473705291748,right,1147.6816358566284,None,pp_19b,clamp,icub,2022_Jan_10_0924,exp,2021.2.3,59.96463000902121,
left,stop,2,0,2,0,12,5,77,2,1148.2113399505615,None,1,0.38687992095947266,1148.2113399505615,None,1148.693146944046,None,1149.6943068504333,1150.0424377918243,1149.6943068504333,1150.0424377918243,1148.693146944046,None,1148.693146944046,None,1148.693146944046,None,350,300,0,True,109.06672477722168,512.1400356292725,left,1151.2183167934418,None,pp_19b,clamp,icub,2022_Jan_10_0924,exp,2021.2.3,59.96463000902121,
left,go,3,0,3,0,0,0,0,0,1165.0966818332672,None,1,21.00219202041626,1165.0966818332672,None,1186.2367057800293,None,1187.2596118450165,1187.6167249679565,1187.2596118450165,1187.6167249679565,1186.2367057800293,None,1186.2367057800293,None,1186.2367057800293,None,-1,-1,1,True,402.4691581726074,478.9445400238037,left,1189.0343070030212,None,pp_19b,clamp,icub,2022_Jan_10_0924,exp,2021.2.3,59.96463000902121,
right,stop,3,0,3,0,0,1,1,5,1189.5368947982788,None,1,0.4763350486755371,1189.5368947982788,None,1190.137682914734,None,1191.1560068130493,1191.489313840866,1191.1560068130493,1191.489313840866,1190.137682914734,None,1190.137682914734,None,1190.137682914734,None,300,300,0,True,221.69899940490723,540.2040481567383,right,1192.7877299785614,None,pp_19b,clamp,icub,2022_Jan_10_0924,exp,2021.2.3,59.96463000902121,
right,stop,3,0,3,0,0,2,2,5,1193.3036849498749,None,1,1.0063610076904297,1193.3036849498749,None,1194.40309882164,None,1195.4304327964783,1195.7788598537445,1195.4304327964783,1195.7788598537445,1194.40309882164,None,1194.40309882164,None,1194.40309882164,None,300,250,1,True,115.3860092163086,-1.0,-1,1199.4298589229584,None,pp_19b,clamp,icub,2022_Jan_10_0924,exp,2021.2.3,59.96463000902121,
left,stop,3,0,3,0,0,3,3,2,1199.925057888031,None,1,0.7463150024414062,1199.925057888031,None,1200.7854249477386,None,1201.7588999271393,1202.1290497779846,1201.7588999271393,1202.1290497779846,1200.7854249477386,None,1200.7854249477386,None,1200.7854249477386,None,300,300,1,True,311.2361431121826,-1.0,-1,1205.9704539775848,None,pp_19b,clamp,icub,2022_Jan_10_0924,exp,2021.2.3,59.96463000902121,
right,go,3,0,3,0,0,4,4,4,1206.5024688243866,None,1,0.40802478790283203,1206.5024688243866,None,1207.052060842514,None,1208.0644237995148,1208.4200899600983,1208.0644237995148,1208.4200899600983,1207.052060842514,None,1207.052060842514,None,1207.052060842514,None,-1,-1,1,True,292.3579216003418,532.8705310821533,right,1209.7755608558655,None,pp_19b,clamp,icub,2022_Jan_10_0924,exp,2021.2.3,59.96463000902121,
left,stop,3,0,3,0,0,5,5,2,1210.2904708385468,None,1,0.3671140670776367,1210.2904708385468,None,1210.7733838558197,None,1211.770124912262,1212.1308629512787,1211.770124912262,1212.1308629512787,1210.7733838558197,None,1210.7733838558197,None,1210.7733838558197,None,350,300,1,True,197.50380516052246,-1.0,-1,1215.85768699646,None,pp_19b,clamp,icub,2022_Jan_10_0924,exp,2021.2.3,59.96463000902121,
right,go,3,0,3,0,1,0,6,3,1216.38946890831,None,1,0.462846040725708,1216.38946890831,None,1216.9413499832153,None,1217.95374584198,1218.3148319721222,1217.95374584198,1218.3148319721222,1216.9413499832153,None,1216.9413499832153,None,1216.9413499832153,None,-1,-1,1,True,228.26719284057617,509.34624671936035,right,1219.5738480091095,None,pp_19b,clamp,icub,2022_Jan_10_0924,exp,2021.2.3,59.96463000902121,
left,go,3,0,3,0,1,1,7,0,1220.084312915802,None,1,0.3613870143890381,1220.084312915802,None,1220.5644209384918,None,1221.5840899944305,1221.9473609924316,1221.5840899944305,1221.9473609924316,1220.5644209384918,None,1220.5644209384918,None,1220.5644209384918,None,-1,-1,1,True,309.44108963012695,504.3063163757324,left,1223.2763710021973,None,pp_19b,clamp,icub,2022_Jan_10_0924,exp,2021.2.3,59.96463000902121,
right,go,3,0,3,0,1,2,8,3,1223.7909169197083,None,1,0.25170087814331055,1223.7909169197083,None,1224.148568868637,None,1225.1778049468994,1225.5340747833252,1225.1778049468994,1225.5340747833252,1224.148568868637,None,1224.148568868637,None,1224.148568868637,None,-1,-1,1,True,155.7025909423828,470.0298309326172,right,1226.6739540100098,None,pp_19b,clamp,icub,2022_Jan_10_0924,exp,2021.2.3,59.96463000902121,
right,stop,3,0,3,0,1,3,9,5,1227.1798298358917,None,1,0.2527601718902588,1227.1798298358917,None,1227.539186000824,None,1228.5620229244232,1228.925420999527,1228.5620229244232,1228.925420999527,1227.539186000824,None,1227.539186000824,None,1227.539186000824,None,400,300,0,True,183.1948757171631,456.1953544616699,right,1230.095811843872,None,pp_19b,clamp,icub,2022_Jan_10_0924,exp,2021.2.3,59.96463000902121,
right,go,3,0,3,0,1,4,10,3,1230.6171917915344,None,1,0.31629395484924316,1230.6171917915344,None,1231.0335428714752,None,1232.0646078586578,1232.419231891632,1232.0646078586578,1232.419231891632,1231.0335428714752,None,1231.0335428714752,None,1231.0335428714752,None,-1,-1,1,True,213.86098861694336,585.2725505828857,right,1233.708997964859,None,pp_19b,clamp,icub,2022_Jan_10_0924,exp,2021.2.3,59.96463000902121,
right,go,3,0,3,0,1,5,11,3,1234.2063088417053,None,1,0.16416311264038086,1234.2063088417053,None,1234.4984338283539,None,1235.5308759212494,1235.898581981659,1235.5308759212494,1235.898581981659,1234.4984338283539,None,1234.4984338283539,None,1234.4984338283539,None,-1,-1,1,True,194.4730281829834,544.6016788482666,right,1237.1263148784637,None,pp_19b,clamp,icub,2022_Jan_10_0924,exp,2021.2.3,59.96463000902121,
