Holder,Action,blocks.thisRepN,blocks.thisTrialN,blocks.thisN,blocks.thisIndex,trials.thisRepN,trials.thisTrialN,trials.thisN,trials.thisIndex,start_msg.started,start_msg.stopped,RespButton_start_trial.keys,RespButton_start_trial.rt,RespButton_start_trial.started,RespButton_start_trial.stopped,GREEN.started,GREEN.stopped,LEFT_RED.started,LEFT_RED.stopped,RIGHT_RED.started,RIGHT_RED.stopped,LEFT_CIRCLE.started,LEFT_CIRCLE.stopped,CENTER_CIRCLE.started,CENTER_CIRCLE.stopped,RIGHT_CIRCLE.started,RIGHT_CIRCLE.stopped,SOUND_DELAY_MS_LEFT,SOUND_DELAY_MS_RIGHT,CORRECT,VALIDITY,RELEASE_TIME,TOUCH_TIME,BOTTLE_RESPONSE_POSITION,text.started,text.stopped,pid,left_position,right_position,date,expName,psychopyVersion,frameRate,
right,go,0,0,0,0,0,0,0,3,85.94533085823059,None,1,12.510677814483643,85.94533085823059,None,98.58184099197388,None,99.60247898101807,99.95380091667175,99.60247898101807,99.95380091667175,98.58184099197388,None,98.58184099197388,None,98.58184099197388,None,-1,-1,1,True,429.95476722717285,542.834997177124,right,101.4449028968811,None,pp_11,icub,clamp,2021_Dec_22_1421,exp,2021.2.3,59.9574295937228,
right,go,0,0,0,0,0,1,1,4,101.954824924469,None,1,1.055954933166504,101.954824924469,None,103.11802196502686,None,104.12433004379272,104.47322487831116,104.12433004379272,104.47322487831116,103.11802196502686,None,103.11802196502686,None,103.11802196502686,None,-1,-1,1,True,279.3149948120117,601.6745567321777,right,105.88745284080505,None,pp_11,icub,clamp,2021_Dec_22_1421,exp,2021.2.3,59.9574295937228,
right,go,0,0,0,0,0,2,2,3,106.4040219783783,None,1,1.2629451751708984,106.4040219783783,None,107.75263094902039,None,108.7844660282135,109.14386796951294,108.7844660282135,109.14386796951294,107.75263094902039,None,107.75263094902039,None,107.75263094902039,None,-1,-1,1,True,295.3481674194336,692.8188800811768,right,110.62135696411133,None,pp_11,icub,clamp,2021_Dec_22_1421,exp,2021.2.3,59.9574295937228,
right,stop,0,0,0,0,0,3,3,5,111.1238489151001,None,1,0.6758019924163818,111.1238489151001,None,111.90834188461304,None,112.91186499595642,113.25794386863708,112.91186499595642,113.25794386863708,111.90834188461304,None,111.90834188461304,None,111.90834188461304,None,500,500,0,True,268.36228370666504,518.9416408538818,right,114.59523296356201,None,pp_11,icub,clamp,2021_Dec_22_1421,exp,2021.2.3,59.9574295937228,
left,go,0,0,0,0,0,4,4,0,115.10473895072937,None,1,1.0338521003723145,115.10473895072937,None,116.2612669467926,None,117.28487181663513,117.61931085586548,117.28487181663513,117.61931085586548,116.2612669467926,None,116.2612669467926,None,116.2612669467926,None,-1,-1,1,True,364.0286922454834,547.8866100311279,left,119.06647086143494,None,pp_11,icub,clamp,2021_Dec_22_1421,exp,2021.2.3,59.9574295937228,
right,go,0,0,0,0,0,5,5,4,119.58869791030884,None,1,0.5082659721374512,119.58869791030884,None,120.19236087799072,None,121.19498991966248,121.55777287483215,121.19498991966248,121.55777287483215,120.19236087799072,None,120.19236087799072,None,120.19236087799072,None,-1,-1,1,True,297.229528427124,467.0541286468506,right,122.84434604644775,None,pp_11,icub,clamp,2021_Dec_22_1421,exp,2021.2.3,59.9574295937228,
left,go,0,0,0,0,1,0,6,1,123.35052680969238,None,1,0.47715187072753906,123.35052680969238,None,123.95544385910034,None,124.95825481414795,125.29809403419495,124.95825481414795,125.29809403419495,123.95544385910034,None,123.95544385910034,None,123.95544385910034,None,-1,-1,1,True,320.5444812774658,541.8872833251953,left,126.72136402130127,None,pp_11,icub,clamp,2021_Dec_22_1421,exp,2021.2.3,59.9574295937228,
left,go,0,0,0,0,1,1,7,0,127.23597502708435,None,1,0.602989912033081,127.23597502708435,None,127.9637188911438,None,128.98037600517273,129.35104298591614,128.98037600517273,129.35104298591614,127.9637188911438,None,127.9637188911438,None,127.9637188911438,None,-1,-1,1,True,298.5100746154785,529.411792755127,left,130.69106483459473,None,pp_11,icub,clamp,2021_Dec_22_1421,exp,2021.2.3,59.9574295937228,
left,go,0,0,0,0,1,2,8,1,131.2104618549347,None,1,0.6075248718261719,131.2104618549347,None,131.9372479915619,None,132.94075083732605,133.30588483810425,132.94075083732605,133.30588483810425,131.9372479915619,None,131.9372479915619,None,131.9372479915619,None,-1,-1,1,True,183.05730819702148,752.7642250061035,left,134.7657949924469,None,pp_11,icub,clamp,2021_Dec_22_1421,exp,2021.2.3,59.9574295937228,
left,go,0,0,0,0,1,3,9,0,135.27935695648193,None,1,0.4054229259490967,135.27935695648193,None,135.7604489326477,None,136.7673659324646,137.11355185508728,136.7673659324646,137.11355185508728,135.7604489326477,None,135.7604489326477,None,135.7604489326477,None,-1,-1,1,True,294.0938472747803,631.633996963501,left,138.5830318927765,None,pp_11,icub,clamp,2021_Dec_22_1421,exp,2021.2.3,59.9574295937228,
left,go,0,0,0,0,1,4,10,0,139.09958600997925,None,1,0.3444938659667969,139.09958600997925,None,139.5194480419159,None,140.52942204475403,140.88041496276855,140.52942204475403,140.88041496276855,139.5194480419159,None,139.5194480419159,None,139.5194480419159,None,-1,-1,1,True,160.22181510925293,557.0733547210693,left,142.12742400169373,None,pp_11,icub,clamp,2021_Dec_22_1421,exp,2021.2.3,59.9574295937228,
right,go,0,0,0,0,1,5,11,4,142.63725781440735,None,1,0.4424099922180176,142.63725781440735,None,143.1808798313141,None,144.17585682868958,144.5327718257904,144.17585682868958,144.5327718257904,143.1808798313141,None,143.1808798313141,None,143.1808798313141,None,-1,-1,1,True,378.03030014038086,667.4759387969971,right,146.1098349094391,None,pp_11,icub,clamp,2021_Dec_22_1421,exp,2021.2.3,59.9574295937228,
right,go,0,0,0,0,2,0,12,4,146.64548087120056,None,1,0.28946709632873535,146.64548087120056,None,147.0627360343933,None,148.08366703987122,148.43618392944336,148.08366703987122,148.43618392944336,147.0627360343933,None,147.0627360343933,None,147.0627360343933,None,-1,-1,1,True,269.2563533782959,623.6469745635986,right,149.85757899284363,None,pp_11,icub,clamp,2021_Dec_22_1421,exp,2021.2.3,59.9574295937228,
left,go,0,0,0,0,2,1,13,1,150.3729429244995,None,1,0.35617518424987793,150.3729429244995,None,150.851989030838,None,151.87723588943481,152.219584941864,151.87723588943481,152.219584941864,150.851989030838,None,150.851989030838,None,150.851989030838,None,-1,-1,1,True,113.4798526763916,528.9511680603027,left,153.389221906662,None,pp_11,icub,clamp,2021_Dec_22_1421,exp,2021.2.3,59.9574295937228,
left,stop,0,0,0,0,2,2,14,2,153.8885099887848,None,1,0.3531050682067871,153.8885099887848,None,154.36466097831726,None,155.3981728553772,155.76051902770996,155.3981728553772,155.76051902770996,154.36466097831726,None,154.36466097831726,None,154.36466097831726,None,500,450,0,True,299.3206977844238,444.4465637207031,left,156.98496198654175,None,pp_11,icub,clamp,2021_Dec_22_1421,exp,2021.2.3,59.9574295937228,
right,go,0,0,0,0,2,3,15,3,157.4895098209381,None,1,0.9842660427093506,157.4895098209381,None,158.5831220149994,None,159.60653686523438,159.96785497665405,159.60653686523438,159.96785497665405,158.5831220149994,None,158.5831220149994,None,158.5831220149994,None,-1,-1,1,True,322.9525089263916,468.39427947998047,right,161.25204396247864,None,pp_11,icub,clamp,2021_Dec_22_1421,exp,2021.2.3,59.9574295937228,
left,go,0,0,0,0,2,4,16,1,161.76879787445068,None,1,0.39808201789855957,161.76879787445068,None,162.24756288528442,None,163.26876783370972,163.6272909641266,163.26876783370972,163.6272909641266,162.24756288528442,None,162.24756288528442,None,162.24756288528442,None,-1,-1,1,True,253.42392921447754,523.0898857116699,left,164.93104600906372,None,pp_11,icub,clamp,2021_Dec_22_1421,exp,2021.2.3,59.9574295937228,
left,go,0,0,0,0,2,5,17,0,165.4439640045166,None,1,0.3486950397491455,165.4439640045166,None,165.92095804214478,None,166.95399498939514,167.29177904129028,166.95399498939514,167.29177904129028,165.92095804214478,None,165.92095804214478,None,165.92095804214478,None,-1,-1,1,True,329.9391269683838,459.6395492553711,left,168.60397386550903,None,pp_11,icub,clamp,2021_Dec_22_1421,exp,2021.2.3,59.9574295937228,
right,stop,0,0,0,0,3,0,18,5,169.11981081962585,None,1,0.35889482498168945,169.11981081962585,None,169.59709787368774,None,170.6276249885559,170.9842438697815,170.6276249885559,170.9842438697815,169.59709787368774,None,169.59709787368774,None,169.59709787368774,None,450,450,0,True,50.16446113586426,602.9043197631836,right,172.16399693489075,None,pp_11,icub,clamp,2021_Dec_22_1421,exp,2021.2.3,59.9574295937228,
left,go,0,0,0,0,3,1,19,0,172.696035861969,None,1,1.069814920425415,172.696035861969,None,173.85683798789978,None,174.8508858680725,175.17699790000916,174.8508858680725,175.17699790000916,173.85683798789978,None,173.85683798789978,None,173.85683798789978,None,,,0,False,-1.0,-1.0,-1,175.65851187705994,None,pp_11,icub,clamp,2021_Dec_22_1421,exp,2021.2.3,59.9574295937228,
right,stop,0,0,0,0,3,2,20,5,176.18803882598877,None,1,1.5492219924926758,176.18803882598877,None,177.83168387413025,None,178.81085300445557,179.15174984931946,178.81085300445557,179.15174984931946,177.83168387413025,None,177.83168387413025,None,177.83168387413025,None,450,400,0,True,395.1563835144043,519.2816257476807,right,180.6111078262329,None,pp_11,icub,clamp,2021_Dec_22_1421,exp,2021.2.3,59.9574295937228,
right,go,0,0,0,0,3,3,21,3,181.14457893371582,None,1,0.9860570430755615,181.14457893371582,None,182.24620604515076,None,183.27227592468262,183.6281018257141,183.27227592468262,183.6281018257141,182.24620604515076,None,182.24620604515076,None,182.24620604515076,None,-1,-1,1,True,295.1517105102539,493.23105812072754,right,184.91245293617249,None,pp_11,icub,clamp,2021_Dec_22_1421,exp,2021.2.3,59.9574295937228,
left,go,0,0,0,0,3,4,22,0,185.432471036911,None,1,0.488893985748291,185.432471036911,None,186.036700963974,None,187.03983187675476,187.38476085662842,187.03983187675476,187.38476085662842,186.036700963974,None,186.036700963974,None,186.036700963974,None,-1,-1,1,True,304.3487071990967,472.1713066101074,left,188.7257149219513,None,pp_11,icub,clamp,2021_Dec_22_1421,exp,2021.2.3,59.9574295937228,
left,stop,0,0,0,0,3,5,23,2,189.24223494529724,None,1,0.45855188369750977,189.24223494529724,None,189.78609991073608,None,190.8133189678192,191.16204500198364,190.8133189678192,191.16204500198364,189.78609991073608,None,189.78609991073608,None,189.78609991073608,None,450,350,1,True,299.6389865875244,-1.0,-1,194.99358797073364,None,pp_11,icub,clamp,2021_Dec_22_1421,exp,2021.2.3,59.9574295937228,
left,stop,0,0,0,0,4,0,24,2,195.52548599243164,None,1,0.7785141468048096,195.52548599243164,None,196.38406896591187,None,197.36519694328308,197.72344493865967,197.36519694328308,197.72344493865967,196.38406896591187,None,196.38406896591187,None,196.38406896591187,None,500,350,0,True,310.8246326446533,453.1879425048828,left,199.04843401908875,None,pp_11,icub,clamp,2021_Dec_22_1421,exp,2021.2.3,59.9574295937228,
left,go,0,0,0,0,4,1,25,1,199.5664668083191,None,1,1.0870740413665771,199.5664668083191,None,200.78635597229004,None,201.81217193603516,202.15762495994568,201.81217193603516,202.15762495994568,200.78635597229004,None,200.78635597229004,None,200.78635597229004,None,-1,-1,1,True,347.17273712158203,863.7206554412842,left,203.90308594703674,None,pp_11,icub,clamp,2021_Dec_22_1421,exp,2021.2.3,59.9574295937228,
left,stop,0,0,0,0,4,2,26,2,204.410542011261,None,1,0.5458991527557373,204.410542011261,None,205.07228994369507,None,206.0806589126587,206.43500399589539,206.0806589126587,206.43500399589539,205.07228994369507,None,205.07228994369507,None,205.07228994369507,None,450,350,1,True,350.36158561706543,-1.0,-1,210.29370284080505,None,pp_11,icub,clamp,2021_Dec_22_1421,exp,2021.2.3,59.9574295937228,
right,go,0,0,0,0,4,3,27,3,210.8244309425354,None,1,0.5905051231384277,210.8244309425354,None,211.4976408481598,None,212.48699688911438,212.85123896598816,212.48699688911438,212.85123896598816,211.4976408481598,None,211.4976408481598,None,211.4976408481598,None,-1,-1,1,True,355.4415702819824,553.1489849090576,right,214.2859058380127,None,pp_11,icub,clamp,2021_Dec_22_1421,exp,2021.2.3,59.9574295937228,
right,stop,0,0,0,0,4,4,28,5,214.79360604286194,None,1,0.6757090091705322,214.79360604286194,None,215.5723578929901,None,216.59155893325806,216.95097184181213,216.59155893325806,216.95097184181213,215.5723578929901,None,215.5723578929901,None,215.5723578929901,None,500,350,1,True,329.27942276000977,-1.0,-1,220.78469896316528,None,pp_11,icub,clamp,2021_Dec_22_1421,exp,2021.2.3,59.9574295937228,
right,go,0,0,0,0,4,5,29,3,221.31568503379822,None,1,0.5223040580749512,221.31568503379822,None,221.9284188747406,None,222.91068387031555,223.26001691818237,222.91068387031555,223.26001691818237,221.9284188747406,None,221.9284188747406,None,221.9284188747406,None,-1,-1,1,True,280.1392078399658,637.9969120025635,right,224.73813199996948,None,pp_11,icub,clamp,2021_Dec_22_1421,exp,2021.2.3,59.9574295937228,
left,go,0,0,0,0,5,0,30,0,225.27233600616455,None,1,0.6203489303588867,225.27233600616455,None,225.99933981895447,None,227.02765703201294,227.37113690376282,227.02765703201294,227.37113690376282,225.99933981895447,None,225.99933981895447,None,225.99933981895447,None,-1,-1,1,True,354.77519035339355,514.6229267120361,left,228.74818181991577,None,pp_11,icub,clamp,2021_Dec_22_1421,exp,2021.2.3,59.9574295937228,
right,go,0,0,0,0,5,1,31,4,229.26116490364075,None,1,0.4174017906188965,229.26116490364075,None,229.80277681350708,None,230.81953287124634,231.1679928302765,230.81953287124634,231.1679928302765,229.80277681350708,None,229.80277681350708,None,229.80277681350708,None,-1,-1,1,True,324.13268089294434,529.7811031341553,right,232.5485188961029,None,pp_11,icub,clamp,2021_Dec_22_1421,exp,2021.2.3,59.9574295937228,
left,stop,0,0,0,0,5,2,32,2,233.05932593345642,None,1,0.4830608367919922,233.05932593345642,None,233.66324591636658,None,234.68177700042725,235.03621792793274,234.68177700042725,235.03621792793274,233.66324591636658,None,233.66324591636658,None,233.66324591636658,None,500,400,0,True,326.7557621002197,605.3533554077148,left,236.4831018447876,None,pp_11,icub,clamp,2021_Dec_22_1421,exp,2021.2.3,59.9574295937228,
right,stop,0,0,0,0,5,3,33,5,237.0128858089447,None,1,1.9776978492736816,237.0128858089447,None,239.1012988090515,None,240.11202192306519,240.47142601013184,240.11202192306519,240.47142601013184,239.1012988090515,None,239.1012988090515,None,239.1012988090515,None,450,400,0,True,320.48630714416504,405.09033203125,right,241.71790981292725,None,pp_11,icub,clamp,2021_Dec_22_1421,exp,2021.2.3,59.9574295937228,
left,stop,0,0,0,0,5,4,34,2,242.23832392692566,None,1,0.9944040775299072,242.23832392692566,None,243.33887100219727,None,244.3394718170166,244.68479084968567,244.3394718170166,244.68479084968567,243.33887100219727,None,243.33887100219727,None,243.33887100219727,None,450,350,0,True,325.2277374267578,694.8728561401367,left,246.27137184143066,None,pp_11,icub,clamp,2021_Dec_22_1421,exp,2021.2.3,59.9574295937228,
right,go,0,0,0,0,5,5,35,3,246.79150581359863,None,1,1.017035961151123,246.79150581359863,None,247.88886189460754,None,248.88290882110596,249.23819398880005,248.88290882110596,249.23819398880005,247.88886189460754,None,247.88886189460754,None,247.88886189460754,None,-1,-1,1,True,358.5078716278076,796.9377040863037,right,250.92768692970276,None,pp_11,icub,clamp,2021_Dec_22_1421,exp,2021.2.3,59.9574295937228,
right,stop,0,0,0,0,6,0,36,5,251.4361698627472,None,1,0.7657008171081543,251.4361698627472,None,252.28750896453857,None,253.2880940437317,253.64228582382202,253.2880940437317,253.64228582382202,252.28750896453857,None,252.28750896453857,None,252.28750896453857,None,400,350,1,True,319.8575973510742,-1.0,-1,257.4888048171997,None,pp_11,icub,clamp,2021_Dec_22_1421,exp,2021.2.3,59.9574295937228,
left,stop,0,0,0,0,6,1,37,2,258.0193350315094,None,1,0.6345219612121582,258.0193350315094,None,258.754273891449,None,259.7296268939972,260.08043384552,259.7296268939972,260.08043384552,258.754273891449,None,258.754273891449,None,258.754273891449,None,400,400,1,True,369.46940422058105,-1.0,-1,264.02270102500916,None,pp_11,icub,clamp,2021_Dec_22_1421,exp,2021.2.3,59.9574295937228,
right,stop,0,0,0,0,6,2,38,5,264.55368995666504,None,1,0.21217012405395508,264.55368995666504,None,264.85668301582336,None,265.85598587989807,266.18914699554443,265.85598587989807,266.18914699554443,264.85668301582336,None,264.85668301582336,None,264.85668301582336,None,450,400,1,True,270.984411239624,-1.0,-1,270.02998995780945,None,pp_11,icub,clamp,2021_Dec_22_1421,exp,2021.2.3,59.9574295937228,
right,go,0,0,0,0,6,3,39,3,270.56118083000183,None,1,0.6486079692840576,270.56118083000183,None,271.2965888977051,None,272.2674558162689,272.61963987350464,272.2674558162689,272.61963987350464,271.2965888977051,None,271.2965888977051,None,271.2965888977051,None,-1,-1,1,True,407.5798988342285,825.7615566253662,right,274.41992592811584,None,pp_11,icub,clamp,2021_Dec_22_1421,exp,2021.2.3,59.9574295937228,
right,stop,0,0,0,0,6,4,40,5,274.9202709197998,None,1,0.654008150100708,274.9202709197998,None,275.64972496032715,None,276.6550350189209,277.0060269832611,276.6550350189209,277.0060269832611,275.64972496032715,None,275.64972496032715,None,275.64972496032715,None,450,450,1,True,230.70955276489258,-1.0,-1,280.7824590206146,None,pp_11,icub,clamp,2021_Dec_22_1421,exp,2021.2.3,59.9574295937228,
left,go,0,0,0,0,6,5,41,1,281.3144328594208,None,1,0.7464518547058105,281.3144328594208,None,282.17323899269104,None,283.14976692199707,283.50580501556396,283.14976692199707,283.50580501556396,282.17323899269104,None,282.17323899269104,None,282.17323899269104,None,-1,-1,1,True,227.27179527282715,536.6213321685791,left,284.80164194107056,None,pp_11,icub,clamp,2021_Dec_22_1421,exp,2021.2.3,59.9574295937228,
left,go,0,0,0,0,7,0,42,0,285.3098180294037,None,1,0.3928511142730713,285.3098180294037,None,285.7932779788971,None,286.8063750267029,287.1607928276062,286.8063750267029,287.1607928276062,285.7932779788971,None,285.7932779788971,None,285.7932779788971,None,-1,-1,1,True,295.23229598999023,541.3105487823486,left,288.5090608596802,None,pp_11,icub,clamp,2021_Dec_22_1421,exp,2021.2.3,59.9574295937228,
right,stop,0,0,0,0,7,1,43,5,289.0368928909302,None,1,0.3686339855194092,289.0368928909302,None,289.51707100868225,None,290.5184500217438,290.8508458137512,290.5184500217438,290.8508458137512,289.51707100868225,None,289.51707100868225,None,289.51707100868225,None,450,500,1,True,358.4635257720947,-1.0,-1,294.7777669429779,None,pp_11,icub,clamp,2021_Dec_22_1421,exp,2021.2.3,59.9574295937228,
left,stop,0,0,0,0,7,2,44,2,295.3068149089813,None,1,0.6950879096984863,295.3068149089813,None,296.1019878387451,None,297.10204696655273,297.4379689693451,297.10204696655273,297.4379689693451,296.1019878387451,None,296.1019878387451,None,296.1019878387451,None,450,550,1,True,242.16461181640625,-1.0,-1,301.2134599685669,None,pp_11,icub,clamp,2021_Dec_22_1421,exp,2021.2.3,59.9574295937228,
left,go,0,0,0,0,7,3,45,1,301.7444019317627,None,1,0.6533050537109375,301.7444019317627,None,302.4801290035248,None,303.452574968338,303.80169892311096,303.452574968338,303.80169892311096,302.4801290035248,None,302.4801290035248,None,302.4801290035248,None,-1,-1,1,True,224.7476577758789,706.6192626953125,left,305.2913269996643,None,pp_11,icub,clamp,2021_Dec_22_1421,exp,2021.2.3,59.9574295937228,
right,go,0,0,0,0,7,4,46,3,305.8199520111084,None,1,0.7494149208068848,305.8199520111084,None,306.6705138683319,None,307.67145586013794,308.0106098651886,307.67145586013794,308.0106098651886,306.6705138683319,None,306.6705138683319,None,306.6705138683319,None,-1,-1,1,True,116.37187004089355,439.72158432006836,right,309.1208498477936,None,pp_11,icub,clamp,2021_Dec_22_1421,exp,2021.2.3,59.9574295937228,
left,go,0,0,0,0,7,5,47,1,309.62071800231934,None,1,0.422497034072876,309.62071800231934,None,310.1631019115448,None,311.1814458370209,311.53183102607727,311.1814458370209,311.53183102607727,310.1631019115448,None,310.1631019115448,None,310.1631019115448,None,-1,-1,1,True,317.39234924316406,579.3929100036621,left,312.95075392723083,None,pp_11,icub,clamp,2021_Dec_22_1421,exp,2021.2.3,59.9574295937228,
right,stop,0,0,0,0,8,0,48,5,313.4687399864197,None,1,0.40145301818847656,313.4687399864197,None,313.95052695274353,None,314.97830295562744,315.3158349990845,314.97830295562744,315.3158349990845,313.95052695274353,None,313.95052695274353,None,313.95052695274353,None,500,550,1,True,320.5723762512207,-1.0,-1,319.1607949733734,None,pp_11,icub,clamp,2021_Dec_22_1421,exp,2021.2.3,59.9574295937228,
left,stop,0,0,0,0,8,1,49,2,319.6927978992462,None,1,0.7599787712097168,319.6927978992462,None,320.553160905838,None,321.53692984580994,321.8931758403778,321.53692984580994,321.8931758403778,320.553160905838,None,320.553160905838,None,320.553160905838,None,500,600,1,True,384.5503330230713,-1.0,-1,325.8167779445648,None,pp_11,icub,clamp,2021_Dec_22_1421,exp,2021.2.3,59.9574295937228,
left,go,0,0,0,0,8,2,50,0,326.34934091567993,None,1,0.45737385749816895,326.34934091567993,None,326.8997588157654,None,327.91309690475464,328.2404639720917,327.91309690475464,328.2404639720917,326.8997588157654,None,326.8997588157654,None,326.8997588157654,None,-1,-1,1,True,209.95187759399414,448.8868713378906,left,329.42992997169495,None,pp_11,icub,clamp,2021_Dec_22_1421,exp,2021.2.3,59.9574295937228,
left,stop,0,0,0,0,8,3,51,2,329.9626679420471,None,1,0.3278019428253174,329.9626679420471,None,330.37946486473083,None,331.4115569591522,331.7688329219818,331.4115569591522,331.7688329219818,330.37946486473083,None,330.37946486473083,None,330.37946486473083,None,550,600,1,True,357.0590019226074,-1.0,-1,335.6160800457001,None,pp_11,icub,clamp,2021_Dec_22_1421,exp,2021.2.3,59.9574295937228,
left,stop,0,0,0,0,8,4,52,2,336.14720392227173,None,1,0.5786328315734863,336.14720392227173,None,336.82121181488037,None,337.7997829914093,338.14901900291443,337.7997829914093,338.14901900291443,336.82121181488037,None,336.82121181488037,None,336.82121181488037,None,600,600,0,True,356.73999786376953,497.29251861572266,left,339.5732898712158,None,pp_11,icub,clamp,2021_Dec_22_1421,exp,2021.2.3,59.9574295937228,
right,stop,0,0,0,0,8,5,53,5,340.09925603866577,None,1,0.8905549049377441,340.09925603866577,None,341.0754609107971,None,342.0892210006714,342.43742203712463,342.0892210006714,342.43742203712463,341.0754609107971,None,341.0754609107971,None,341.0754609107971,None,550,600,0,True,380.1007270812988,788.6805534362793,right,344.12488198280334,None,pp_11,icub,clamp,2021_Dec_22_1421,exp,2021.2.3,59.9574295937228,
left,stop,0,0,0,0,9,0,54,2,344.63921785354614,None,1,1.2721309661865234,344.63921785354614,None,345.986958026886,None,347.0036678314209,347.3643329143524,347.0036678314209,347.3643329143524,345.986958026886,None,345.986958026886,None,345.986958026886,None,550,550,1,True,687.9112720489502,-1.0,-1,351.58960580825806,None,pp_11,icub,clamp,2021_Dec_22_1421,exp,2021.2.3,59.9574295937228,
left,go,0,0,0,0,9,1,55,0,352.08235001564026,None,1,0.9163110256195068,352.08235001564026,None,353.12705183029175,None,None,None,None,None,353.12705183029175,None,353.12705183029175,None,353.12705183029175,None,,,0,False,-1.0,-1.0,-1,353.2378480434418,None,pp_11,icub,clamp,2021_Dec_22_1421,exp,2021.2.3,59.9574295937228,
right,go,0,0,0,0,9,2,56,4,353.768501996994,None,1,2.0312559604644775,353.768501996994,None,355.9317829608917,None,356.9108028411865,357.277055978775,356.9108028411865,357.277055978775,355.9317829608917,None,355.9317829608917,None,355.9317829608917,None,-1,-1,1,True,457.14735984802246,789.2484664916992,right,359.05242681503296,None,pp_11,icub,clamp,2021_Dec_22_1421,exp,2021.2.3,59.9574295937228,
left,go,0,0,0,0,9,3,57,1,359.55467081069946,None,1,0.44155001640319824,359.55467081069946,None,360.081857919693,None,361.0761740207672,361.4385299682617,361.0761740207672,361.4385299682617,360.081857919693,None,360.081857919693,None,360.081857919693,None,-1,-1,1,True,188.31801414489746,527.2688865661621,left,362.6853029727936,None,pp_11,icub,clamp,2021_Dec_22_1421,exp,2021.2.3,59.9574295937228,
right,go,0,0,0,0,9,4,58,4,363.2042429447174,None,1,0.4480631351470947,363.2042429447174,None,363.7433178424835,None,364.76998686790466,365.10846495628357,364.76998686790466,365.10846495628357,363.7433178424835,None,363.7433178424835,None,363.7433178424835,None,,,0,False,3000.3111362457275,-1.0,-1,368.6354420185089,None,pp_11,icub,clamp,2021_Dec_22_1421,exp,2021.2.3,59.9574295937228,
right,go,0,0,0,0,9,5,59,4,369.128643989563,None,1,1.454667091369629,369.128643989563,None,370.71648693084717,None,371.7164969444275,372.0623598098755,371.7164969444275,372.0623598098755,370.71648693084717,None,370.71648693084717,None,370.71648693084717,None,-1,-1,1,True,477.43940353393555,933.7503910064697,right,374.0106680393219,None,pp_11,icub,clamp,2021_Dec_22_1421,exp,2021.2.3,59.9574295937228,
left,go,0,0,0,0,10,0,60,0,374.52682995796204,None,1,0.6165859699249268,374.52682995796204,None,375.252552986145,None,376.26830101013184,376.62312483787537,376.26830101013184,376.62312483787537,375.252552986145,None,375.252552986145,None,375.252552986145,None,-1,-1,1,True,338.1509780883789,840.2557373046875,left,378.33158802986145,None,pp_11,icub,clamp,2021_Dec_22_1421,exp,2021.2.3,59.9574295937228,
left,go,0,0,0,0,10,1,61,1,378.8523099422455,None,1,0.4237508773803711,378.8523099422455,None,379.39659786224365,None,380.4165279865265,380.74061584472656,380.4165279865265,380.74061584472656,379.39659786224365,None,379.39659786224365,None,379.39659786224365,None,-1,-1,1,True,308.6416721343994,422.58143424987793,left,382.0326828956604,None,pp_11,icub,clamp,2021_Dec_22_1421,exp,2021.2.3,59.9574295937228,
right,go,0,0,0,0,10,2,62,3,382.53743290901184,None,1,0.4049720764160156,382.53743290901184,None,383.0176739692688,None,384.0382959842682,384.36998891830444,384.0382959842682,384.36998891830444,383.0176739692688,None,383.0176739692688,None,383.0176739692688,None,-1,-1,1,True,298.3875274658203,563.5156631469727,right,385.763552904129,None,pp_11,icub,clamp,2021_Dec_22_1421,exp,2021.2.3,59.9574295937228,
right,go,0,0,0,0,10,3,63,4,386.2825698852539,None,1,0.32234883308410645,386.2825698852539,None,386.7062108516693,None,387.73852491378784,388.0965540409088,387.73852491378784,388.0965540409088,386.7062108516693,None,386.7062108516693,None,386.7062108516693,None,-1,-1,1,True,235.63599586486816,468.83440017700195,right,389.28474402427673,None,pp_11,icub,clamp,2021_Dec_22_1421,exp,2021.2.3,59.9574295937228,
right,stop,0,0,0,0,10,4,64,5,389.80160689353943,None,1,0.4345409870147705,389.80160689353943,None,390.3426058292389,None,391.3626058101654,391.71926188468933,391.3626058101654,391.71926188468933,390.3426058292389,None,390.3426058292389,None,390.3426058292389,None,600,550,0,True,296.88525199890137,439.5489692687988,right,392.9904098510742,None,pp_11,icub,clamp,2021_Dec_22_1421,exp,2021.2.3,59.9574295937228,
right,go,0,0,0,0,10,5,65,3,393.502317905426,None,1,0.7561321258544922,393.502317905426,None,394.3510899543762,None,395.3680930137634,395.7289559841156,395.3680930137634,395.7289559841156,394.3510899543762,None,394.3510899543762,None,394.3510899543762,None,-1,-1,1,True,314.52012062072754,767.6162719726562,right,397.3401629924774,None,pp_11,icub,clamp,2021_Dec_22_1421,exp,2021.2.3,59.9574295937228,
left,go,0,0,0,0,11,0,66,1,397.849112033844,None,1,0.3070690631866455,397.849112033844,None,398.26422595977783,None,399.26352095603943,399.5917589664459,399.26352095603943,399.5917589664459,398.26422595977783,None,398.26422595977783,None,398.26422595977783,None,-1,-1,1,True,81.27307891845703,474.28274154663086,left,400.7217860221863,None,pp_11,icub,clamp,2021_Dec_22_1421,exp,2021.2.3,59.9574295937228,
right,go,0,0,0,0,11,1,67,4,401.2276840209961,None,1,0.44651103019714355,401.2276840209961,None,401.7698550224304,None,402.8019828796387,403.16070103645325,402.8019828796387,403.16070103645325,401.7698550224304,None,401.7698550224304,None,401.7698550224304,None,-1,-1,1,True,247.10464477539062,789.9949550628662,right,404.67348980903625,None,pp_11,icub,clamp,2021_Dec_22_1421,exp,2021.2.3,59.9574295937228,
left,stop,0,0,0,0,11,2,68,2,405.17588782310486,None,1,0.42002391815185547,405.17588782310486,None,405.6942238807678,None,406.692067861557,407.0556569099426,406.692067861557,407.0556569099426,405.6942238807678,None,405.6942238807678,None,405.6942238807678,None,600,500,0,True,358.3192825317383,437.9923343658447,left,408.3747880458832,None,pp_11,icub,clamp,2021_Dec_22_1421,exp,2021.2.3,59.9574295937228,
right,go,0,0,0,0,11,3,69,3,408.88844990730286,None,1,0.9550440311431885,408.88844990730286,None,409.9715528488159,None,411.0005028247833,411.3549199104309,411.0005028247833,411.3549199104309,409.9715528488159,None,409.9715528488159,None,409.9715528488159,None,-1,-1,1,True,311.1398220062256,388.1847858428955,right,412.5824019908905,None,pp_11,icub,clamp,2021_Dec_22_1421,exp,2021.2.3,59.9574295937228,
left,go,0,0,0,0,11,4,70,1,413.1022448539734,None,1,0.4478118419647217,413.1022448539734,None,413.64506697654724,None,414.6646978855133,415.0239679813385,414.6646978855133,415.0239679813385,413.64506697654724,None,413.64506697654724,None,413.64506697654724,None,-1,-1,1,True,296.66590690612793,534.2550277709961,left,416.3844518661499,None,pp_11,icub,clamp,2021_Dec_22_1421,exp,2021.2.3,59.9574295937228,
right,stop,0,0,0,0,11,5,71,5,416.9129128456116,None,1,0.3580210208892822,416.9129128456116,None,417.38978099823,None,418.4011528491974,418.7556838989258,418.4011528491974,418.7556838989258,417.38978099823,None,417.38978099823,None,417.38978099823,None,550,500,1,True,307.02686309814453,-1.0,-1,422.5929448604584,None,pp_11,icub,clamp,2021_Dec_22_1421,exp,2021.2.3,59.9574295937228,
right,go,0,0,0,0,12,0,72,3,423.1244258880615,None,1,1.2561278343200684,423.1244258880615,None,424.478768825531,None,425.46763491630554,425.81806087493896,425.46763491630554,425.81806087493896,424.478768825531,None,424.478768825531,None,424.478768825531,None,-1,-1,1,True,313.37761878967285,756.2103271484375,right,427.43081998825073,None,pp_11,icub,clamp,2021_Dec_22_1421,exp,2021.2.3,59.9574295937228,
right,go,0,0,0,0,12,1,73,4,427.9465329647064,None,1,0.38480710983276367,427.9465329647064,None,428.4269540309906,None,429.45936584472656,429.78687286376953,429.45936584472656,429.78687286376953,428.4269540309906,None,428.4269540309906,None,428.4269540309906,None,-1,-1,1,True,251.59406661987305,677.2792339324951,right,431.2423269748688,None,pp_11,icub,clamp,2021_Dec_22_1421,exp,2021.2.3,59.9574295937228,
right,go,0,0,0,0,12,2,74,4,431.76919293403625,None,1,0.32184910774230957,431.76919293403625,None,432.1859118938446,None,433.1969838142395,433.52864503860474,433.1969838142395,433.52864503860474,432.1859118938446,None,432.1859118938446,None,432.1859118938446,None,-1,-1,1,True,244.73810195922852,534.8823070526123,right,434.8391628265381,None,pp_11,icub,clamp,2021_Dec_22_1421,exp,2021.2.3,59.9574295937228,
left,go,0,0,0,0,12,3,75,0,435.3711259365082,None,1,0.3359639644622803,435.3711259365082,None,435.79259181022644,None,436.8126029968262,437.1601150035858,436.8126029968262,437.1601150035858,435.79259181022644,None,435.79259181022644,None,435.79259181022644,None,-1,-1,1,True,300.51422119140625,456.77661895751953,left,438.44186091423035,None,pp_11,icub,clamp,2021_Dec_22_1421,exp,2021.2.3,59.9574295937228,
left,go,0,0,0,0,12,4,76,1,438.957927942276,None,1,0.38395214080810547,438.957927942276,None,439.44339394569397,None,440.45400500297546,440.8187098503113,440.45400500297546,440.8187098503113,439.44339394569397,None,439.44339394569397,None,439.44339394569397,None,-1,-1,1,True,258.41450691223145,807.0957660675049,left,442.41155791282654,None,pp_11,icub,clamp,2021_Dec_22_1421,exp,2021.2.3,59.9574295937228,
right,go,0,0,0,0,12,5,77,4,442.90931487083435,None,1,0.30867981910705566,442.90931487083435,None,443.3289678096771,None,444.3267979621887,444.68504095077515,444.3267979621887,444.68504095077515,443.3289678096771,None,443.3289678096771,None,443.3289678096771,None,-1,-1,1,True,284.33871269226074,971.1666107177734,right,446.4740698337555,None,pp_11,icub,clamp,2021_Dec_22_1421,exp,2021.2.3,59.9574295937228,
left,go,1,0,1,0,0,0,0,0,458.1306269168854,None,1,12.345164060592651,458.1306269168854,None,470.5850579738617,None,471.5967218875885,471.9290750026703,471.5967218875885,471.9290750026703,470.5850579738617,None,470.5850579738617,None,470.5850579738617,None,-1,-1,1,True,345.6571102142334,409.515380859375,left,473.2195990085602,None,pp_11,icub,clamp,2021_Dec_22_1421,exp,2021.2.3,59.9574295937228,
right,go,1,0,1,0,0,1,1,3,473.71968698501587,None,1,0.3541080951690674,473.71968698501587,None,474.1938920021057,None,475.19248700141907,475.554594039917,475.19248700141907,475.554594039917,474.1938920021057,None,474.1938920021057,None,474.1938920021057,None,-1,-1,1,True,275.6972312927246,401.930570602417,right,476.7575628757477,None,pp_11,icub,clamp,2021_Dec_22_1421,exp,2021.2.3,59.9574295937228,
right,stop,1,0,1,0,0,2,2,5,477.283921957016,None,1,0.4459989070892334,477.283921957016,None,477.8246109485626,None,478.83698987960815,479.1843099594116,478.83698987960815,479.1843099594116,477.8246109485626,None,477.8246109485626,None,477.8246109485626,None,550,550,0,True,122.74646759033203,405.3332805633545,right,480.2487030029297,None,pp_11,icub,clamp,2021_Dec_22_1421,exp,2021.2.3,59.9574295937228,
right,go,1,0,1,0,0,3,3,4,480.776211977005,None,1,0.7360210418701172,480.776211977005,None,481.6262938976288,None,482.62674498558044,482.9865918159485,482.62674498558044,482.9865918159485,481.6262938976288,None,481.6262938976288,None,481.6262938976288,None,-1,-1,1,True,174.8497486114502,525.2053737640381,right,484.2186348438263,None,pp_11,icub,clamp,2021_Dec_22_1421,exp,2021.2.3,59.9574295937228,
right,go,1,0,1,0,0,4,4,3,484.74339985847473,None,1,0.4476659297943115,484.74339985847473,None,485.2867178916931,None,486.28467988967896,486.60784888267517,486.28467988967896,486.60784888267517,485.2867178916931,None,485.2867178916931,None,485.2867178916931,None,,,0,False,-1.0,-1.0,-1,487.1475808620453,None,pp_11,icub,clamp,2021_Dec_22_1421,exp,2021.2.3,59.9574295937228,
right,go,1,0,1,0,0,5,5,4,487.6413109302521,None,1,1.0267059803009033,487.6413109302521,None,488.79099202156067,None,489.79449486732483,490.14198184013367,489.79449486732483,490.14198184013367,488.79099202156067,None,488.79099202156067,None,488.79099202156067,None,-1,-1,1,True,321.38776779174805,531.9147109985352,right,491.533264875412,None,pp_11,icub,clamp,2021_Dec_22_1421,exp,2021.2.3,59.9574295937228,
left,stop,1,0,1,0,1,0,6,2,492.028342962265,None,1,0.372452974319458,492.028342962265,None,492.5076858997345,None,493.53977704048157,493.8992748260498,493.53977704048157,493.8992748260498,492.5076858997345,None,492.5076858997345,None,492.5076858997345,None,550,500,0,True,269.11258697509766,623.647928237915,left,495.2876968383789,None,pp_11,icub,clamp,2021_Dec_22_1421,exp,2021.2.3,59.9574295937228,
left,stop,1,0,1,0,1,1,7,2,495.8078329563141,None,1,0.9873130321502686,495.8078329563141,None,496.9053409099579,None,497.92961597442627,498.2890999317169,497.92961597442627,498.2890999317169,496.9053409099579,None,496.9053409099579,None,496.9053409099579,None,500,500,0,True,301.5711307525635,522.681474685669,left,499.6011848449707,None,pp_11,icub,clamp,2021_Dec_22_1421,exp,2021.2.3,59.9574295937228,
right,go,1,0,1,0,1,2,8,3,500.10453391075134,None,1,0.7692492008209229,500.10453391075134,None,500.9591200351715,None,501.9866759777069,502.3318748474121,501.9866759777069,502.3318748474121,500.9591200351715,None,500.9591200351715,None,500.9591200351715,None,-1,-1,1,True,261.2788677215576,1110.215187072754,right,504.22911500930786,None,pp_11,icub,clamp,2021_Dec_22_1421,exp,2021.2.3,59.9574295937228,
right,go,1,0,1,0,1,3,9,4,504.7339680194855,None,1,0.3556540012359619,504.7339680194855,None,505.2185068130493,None,506.22804498672485,506.59209084510803,506.22804498672485,506.59209084510803,505.2185068130493,None,505.2185068130493,None,505.2185068130493,None,-1,-1,1,True,332.3521614074707,658.3104133605957,right,508.0998179912567,None,pp_11,icub,clamp,2021_Dec_22_1421,exp,2021.2.3,59.9574295937228,
left,stop,1,0,1,0,1,4,10,2,508.61533784866333,None,1,0.28549885749816895,508.61533784866333,None,508.9761869907379,None,509.99640583992004,510.36658787727356,509.99640583992004,510.36658787727356,508.9761869907379,None,508.9761869907379,None,508.9761869907379,None,450,500,0,True,187.96825408935547,565.6337738037109,left,511.6141698360443,None,pp_11,icub,clamp,2021_Dec_22_1421,exp,2021.2.3,59.9574295937228,
right,go,1,0,1,0,1,5,11,4,512.1306939125061,None,1,1.9029510021209717,512.1306939125061,None,514.1435840129852,None,515.140105009079,515.4794409275055,515.140105009079,515.4794409275055,514.1435840129852,None,514.1435840129852,None,514.1435840129852,None,-1,-1,1,True,499.2842674255371,742.2122955322266,right,517.2983548641205,None,pp_11,icub,clamp,2021_Dec_22_1421,exp,2021.2.3,59.9574295937228,
right,stop,1,0,1,0,2,0,12,5,517.79558801651,None,1,0.3044898509979248,517.79558801651,None,518.2146799564362,None,519.215845823288,519.560632944107,519.215845823288,519.560632944107,518.2146799564362,None,518.2146799564362,None,518.2146799564362,None,400,500,1,True,197.6613998413086,-1.0,-1,523.3170850276947,None,pp_11,icub,clamp,2021_Dec_22_1421,exp,2021.2.3,59.9574295937228,
left,go,1,0,1,0,2,1,13,0,523.8476309776306,None,1,0.503338098526001,523.8476309776306,None,524.4460008144379,None,525.4540119171143,525.789155960083,525.4540119171143,525.789155960083,524.4460008144379,None,524.4460008144379,None,524.4460008144379,None,-1,-1,1,True,198.84324073791504,624.0847110748291,left,527.1388599872589,None,pp_11,icub,clamp,2021_Dec_22_1421,exp,2021.2.3,59.9574295937228,
right,go,1,0,1,0,2,2,14,3,527.6567718982697,None,1,0.27005982398986816,527.6567718982697,None,528.0126538276672,None,529.0187139511108,529.3755209445953,529.0187139511108,529.3755209445953,528.0126538276672,None,528.0126538276672,None,528.0126538276672,None,-1,-1,1,True,280.03811836242676,536.7224216461182,right,530.7064299583435,None,pp_11,icub,clamp,2021_Dec_22_1421,exp,2021.2.3,59.9574295937228,
right,stop,1,0,1,0,2,3,15,5,531.2140028476715,None,1,0.3324699401855469,531.2140028476715,None,531.6322269439697,None,532.6243829727173,532.9814319610596,532.6243829727173,532.9814319610596,531.6322269439697,None,531.6322269439697,None,531.6322269439697,None,400,550,1,True,242.66695976257324,-1.0,-1,536.7806599140167,None,pp_11,icub,clamp,2021_Dec_22_1421,exp,2021.2.3,59.9574295937228,
right,stop,1,0,1,0,2,4,16,5,537.3126928806305,None,1,0.4904751777648926,537.3126928806305,None,537.9246168136597,None,538.9127948284149,539.2732219696045,538.9127948284149,539.2732219696045,537.9246168136597,None,537.9246168136597,None,537.9246168136597,None,400,600,0,True,83.92691612243652,580.4357528686523,right,540.4703638553619,None,pp_11,icub,clamp,2021_Dec_22_1421,exp,2021.2.3,59.9574295937228,
left,go,1,0,1,0,2,5,17,1,540.9990639686584,None,1,1.2005820274353027,540.9990639686584,None,542.2853939533234,None,543.2810728549957,543.6252338886261,543.2810728549957,543.6252338886261,542.2853939533234,None,542.2853939533234,None,542.2853939533234,None,-1,-1,1,True,320.8773136138916,869.3149089813232,left,545.3481478691101,None,pp_11,icub,clamp,2021_Dec_22_1421,exp,2021.2.3,59.9574295937228,
left,go,1,0,1,0,3,0,18,0,545.8648059368134,None,1,0.3996880054473877,545.8648059368134,None,546.3452558517456,None,547.3382270336151,547.686910867691,547.3382270336151,547.686910867691,546.3452558517456,None,546.3452558517456,None,546.3452558517456,None,-1,-1,1,True,359.4658374786377,633.1596374511719,left,549.2430720329285,None,pp_11,icub,clamp,2021_Dec_22_1421,exp,2021.2.3,59.9574295937228,
right,go,1,0,1,0,3,1,19,4,549.763916015625,None,1,0.2445530891418457,549.763916015625,None,550.1163778305054,None,551.1516828536987,551.4954710006714,551.1516828536987,551.4954710006714,550.1163778305054,None,550.1163778305054,None,550.1163778305054,None,-1,-1,1,True,228.50441932678223,875.0956058502197,right,553.1311249732971,None,pp_11,icub,clamp,2021_Dec_22_1421,exp,2021.2.3,59.9574295937228,
left,go,1,0,1,0,3,2,20,0,553.6493308544159,None,1,0.08753800392150879,553.6493308544159,None,553.817430973053,None,554.8162679672241,555.1679248809814,554.8162679672241,555.1679248809814,553.817430973053,None,553.817430973053,None,553.817430973053,None,-1,-1,1,True,333.1184387207031,583.7182998657227,left,556.6400020122528,None,pp_11,icub,clamp,2021_Dec_22_1421,exp,2021.2.3,59.9574295937228,
right,go,1,0,1,0,3,3,21,3,557.1712410449982,None,1,0.31720900535583496,557.1712410449982,None,557.5897369384766,None,558.5910198688507,558.9321978092194,558.5910198688507,558.9321978092194,557.5897369384766,None,557.5897369384766,None,557.5897369384766,None,-1,-1,1,True,338.46092224121094,439.8057460784912,right,560.2665369510651,None,pp_11,icub,clamp,2021_Dec_22_1421,exp,2021.2.3,59.9574295937228,
right,stop,1,0,1,0,3,4,22,5,560.7855579853058,None,1,0.31797194480895996,560.7855579853058,None,561.2046499252319,None,562.2136278152466,562.5706458091736,562.2136278152466,562.5706458091736,561.2046499252319,None,561.2046499252319,None,561.2046499252319,None,400,550,0,True,299.3125915527344,489.29905891418457,right,563.8962290287018,None,pp_11,icub,clamp,2021_Dec_22_1421,exp,2021.2.3,59.9574295937228,
right,stop,1,0,1,0,3,5,23,5,564.4055898189545,None,1,0.8443570137023926,564.4055898189545,None,565.3774588108063,None,566.3938269615173,566.7452058792114,566.3938269615173,566.7452058792114,565.3774588108063,None,565.3774588108063,None,565.3774588108063,None,400,500,0,True,395.1759338378906,589.1625881195068,right,568.2635698318481,None,pp_11,icub,clamp,2021_Dec_22_1421,exp,2021.2.3,59.9574295937228,
right,go,1,0,1,0,4,0,24,4,568.7829058170319,None,1,0.7966558933258057,568.7829058170319,None,569.6945369243622,None,570.693598985672,571.0588629245758,570.693598985672,571.0588629245758,569.6945369243622,None,569.6945369243622,None,569.6945369243622,None,-1,-1,1,True,406.9643020629883,831.2194347381592,right,572.8151769638062,None,pp_11,icub,clamp,2021_Dec_22_1421,exp,2021.2.3,59.9574295937228,
left,stop,1,0,1,0,4,1,25,2,573.3324348926544,None,1,0.28204894065856934,573.3324348926544,None,573.690083026886,None,574.6863949298859,575.0474238395691,574.6863949298859,575.0474238395691,573.690083026886,None,573.690083026886,None,573.690083026886,None,400,450,1,True,358.0482006072998,-1.0,-1,578.9300169944763,None,pp_11,icub,clamp,2021_Dec_22_1421,exp,2021.2.3,59.9574295937228,
left,go,1,0,1,0,4,2,26,0,579.4634850025177,None,1,0.39954686164855957,579.4634850025177,None,579.9520409107208,None,580.9293990135193,581.2847039699554,580.9293990135193,581.2847039699554,579.9520409107208,None,579.9520409107208,None,579.9520409107208,None,-1,-1,1,True,408.1718921661377,670.8290576934814,left,582.9292159080505,None,pp_11,icub,clamp,2021_Dec_22_1421,exp,2021.2.3,59.9574295937228,
right,stop,1,0,1,0,4,3,27,5,583.4427669048309,None,1,0.3546111583709717,583.4427669048309,None,583.9203948974609,None,584.9397819042206,585.3042228221893,584.9397819042206,585.3042228221893,583.9203948974609,None,583.9203948974609,None,583.9203948974609,None,450,450,1,True,393.4786319732666,-1.0,-1,589.1847069263458,None,pp_11,icub,clamp,2021_Dec_22_1421,exp,2021.2.3,59.9574295937228,
right,go,1,0,1,0,4,4,28,4,589.7165389060974,None,1,0.6044769287109375,589.7165389060974,None,590.4532039165497,None,591.4394879341125,591.8011000156403,591.4394879341125,591.8011000156403,590.4532039165497,None,590.4532039165497,None,590.4532039165497,None,-1,-1,1,True,274.5544910430908,634.0498924255371,right,593.23486495018,None,pp_11,icub,clamp,2021_Dec_22_1421,exp,2021.2.3,59.9574295937228,
left,go,1,0,1,0,4,5,29,0,593.7670300006866,None,1,0.2999589443206787,593.7670300006866,None,594.1830129623413,None,595.2126688957214,595.5772340297699,595.2126688957214,595.5772340297699,594.1830129623413,None,594.1830129623413,None,594.1830129623413,None,-1,-1,1,True,355.2994728088379,502.9582977294922,left,596.9143538475037,None,pp_11,icub,clamp,2021_Dec_22_1421,exp,2021.2.3,59.9574295937228,
left,stop,1,0,1,0,5,0,30,2,597.434497833252,None,1,0.2482318878173828,597.434497833252,None,597.7898528575897,None,598.8016839027405,599.1658079624176,598.8016839027405,599.1658079624176,597.7898528575897,None,597.7898528575897,None,597.7898528575897,None,450,500,0,True,385.4377269744873,461.37428283691406,left,600.5443799495697,None,pp_11,icub,clamp,2021_Dec_22_1421,exp,2021.2.3,59.9574295937228,
right,go,1,0,1,0,5,1,31,4,601.0646660327911,None,1,0.8589489459991455,601.0646660327911,None,602.03968501091,None,603.0689148902893,603.4220600128174,603.0689148902893,603.4220600128174,602.03968501091,None,602.03968501091,None,602.03968501091,None,-1,-1,1,True,449.54538345336914,443.83692741394043,right,604.8108389377594,None,pp_11,icub,clamp,2021_Dec_22_1421,exp,2021.2.3,59.9574295937228,
left,go,1,0,1,0,5,2,32,1,605.3080129623413,None,1,0.41332197189331055,605.3080129623413,None,605.8445279598236,None,606.8419878482819,607.2024238109589,606.8419878482819,607.2024238109589,605.8445279598236,None,605.8445279598236,None,605.8445279598236,None,-1,-1,1,True,339.90979194641113,381.4826011657715,left,608.4552309513092,None,pp_11,icub,clamp,2021_Dec_22_1421,exp,2021.2.3,59.9574295937228,
right,go,1,0,1,0,5,3,33,4,608.9837908744812,None,1,0.3785979747772217,608.9837908744812,None,609.4641828536987,None,610.4697740077972,610.8245639801025,610.4697740077972,610.8245639801025,609.4641828536987,None,609.4641828536987,None,609.4641828536987,None,-1,-1,1,True,305.2237033843994,674.8909950256348,right,612.3323090076447,None,pp_11,icub,clamp,2021_Dec_22_1421,exp,2021.2.3,59.9574295937228,
right,go,1,0,1,0,5,4,34,3,612.8500878810883,None,1,0.24363207817077637,612.8500878810883,None,613.1945869922638,None,614.2050650119781,614.5569999217987,614.2050650119781,614.5569999217987,613.1945869922638,None,613.1945869922638,None,613.1945869922638,None,-1,-1,1,True,248.02684783935547,853.9862632751465,right,616.1846418380737,None,pp_11,icub,clamp,2021_Dec_22_1421,exp,2021.2.3,59.9574295937228,
right,go,1,0,1,0,5,5,35,4,616.7033479213715,None,1,0.13608503341674805,616.7033479213715,None,616.9403359889984,None,617.9431018829346,618.281320810318,617.9431018829346,618.281320810318,616.9403359889984,None,616.9403359889984,None,616.9403359889984,None,-1,-1,1,True,299.49402809143066,533.4928035736084,right,619.6473588943481,None,pp_11,icub,clamp,2021_Dec_22_1421,exp,2021.2.3,59.9574295937228,
right,go,1,0,1,0,6,0,36,4,620.1480088233948,None,1,0.4414498805999756,620.1480088233948,None,620.6966438293457,None,621.6961269378662,622.0273089408875,621.6961269378662,622.0273089408875,620.6966438293457,None,620.6966438293457,None,620.6966438293457,None,-1,-1,1,True,249.46069717407227,583.2605361938477,right,623.4075438976288,None,pp_11,icub,clamp,2021_Dec_22_1421,exp,2021.2.3,59.9574295937228,
right,go,1,0,1,0,6,1,37,4,623.9276678562164,None,1,0.3186187744140625,623.9276678562164,None,624.346804857254,None,625.3523440361023,625.7120699882507,625.3523440361023,625.7120699882507,624.346804857254,None,624.346804857254,None,624.346804857254,None,,,0,False,-1.0,-1.0,-1,626.2279508113861,None,pp_11,icub,clamp,2021_Dec_22_1421,exp,2021.2.3,59.9574295937228,
left,go,1,0,1,0,6,2,38,1,626.7526199817657,None,1,1.3632900714874268,626.7526199817657,None,628.231705904007,None,629.2199668884277,629.5824828147888,629.2199668884277,629.5824828147888,628.231705904007,None,628.231705904007,None,628.231705904007,None,-1,-1,1,True,364.64619636535645,576.1427879333496,left,631.054004907608,None,pp_11,icub,clamp,2021_Dec_22_1421,exp,2021.2.3,59.9574295937228,
left,go,1,0,1,0,6,3,39,0,631.5697908401489,None,1,0.4225289821624756,631.5697908401489,None,632.1126048564911,None,633.1236779689789,633.4820988178253,633.1236779689789,633.4820988178253,632.1126048564911,None,632.1126048564911,None,632.1126048564911,None,-1,-1,1,True,240.8273220062256,601.3345718383789,left,634.8550930023193,None,pp_11,icub,clamp,2021_Dec_22_1421,exp,2021.2.3,59.9574295937228,
right,go,1,0,1,0,6,4,40,3,635.3737678527832,None,1,0.2673368453979492,635.3737678527832,None,635.7257080078125,None,636.7392899990082,637.1064159870148,636.7392899990082,637.1064159870148,635.7257080078125,None,635.7257080078125,None,635.7257080078125,None,-1,-1,1,True,255.80191612243652,800.7965087890625,right,638.6849038600922,None,pp_11,icub,clamp,2021_Dec_22_1421,exp,2021.2.3,59.9574295937228,
right,go,1,0,1,0,6,5,41,3,639.1873998641968,None,1,0.3200039863586426,639.1873998641968,None,639.6074259281158,None,640.599133014679,640.9546339511871,640.599133014679,640.9546339511871,639.6074259281158,None,639.6074259281158,None,639.6074259281158,None,-1,-1,1,True,292.1476364135742,570.2605247497559,right,642.3569889068604,None,pp_11,icub,clamp,2021_Dec_22_1421,exp,2021.2.3,59.9574295937228,
right,go,1,0,1,0,7,0,42,3,642.8735599517822,None,1,0.7069649696350098,642.8735599517822,None,643.6663889884949,None,644.6580250263214,644.9792740345001,644.6580250263214,644.9792740345001,643.6663889884949,None,643.6663889884949,None,643.6663889884949,None,-1,-1,1,True,327.90446281433105,539.4852161407471,right,646.402909040451,None,pp_11,icub,clamp,2021_Dec_22_1421,exp,2021.2.3,59.9574295937228,
left,go,1,0,1,0,7,1,43,0,646.9036529064178,None,1,0.3281590938568115,646.9036529064178,None,647.3222630023956,None,648.3205008506775,648.6746759414673,648.3205008506775,648.6746759414673,647.3222630023956,None,647.3222630023956,None,647.3222630023956,None,-1,-1,1,True,415.56453704833984,527.5230407714844,left,650.1449289321899,None,pp_11,icub,clamp,2021_Dec_22_1421,exp,2021.2.3,59.9574295937228,
left,go,1,0,1,0,7,2,44,0,650.6563060283661,None,1,0.37790489196777344,650.6563060283661,None,651.135491847992,None,652.1625330448151,652.5279288291931,652.1625330448151,652.5279288291931,651.135491847992,None,651.135491847992,None,651.135491847992,None,-1,-1,1,True,349.58529472351074,463.8218879699707,left,653.822870016098,None,pp_11,icub,clamp,2021_Dec_22_1421,exp,2021.2.3,59.9574295937228,
left,stop,1,0,1,0,7,3,45,2,654.3383460044861,None,1,0.318648099899292,654.3383460044861,None,654.7481088638306,None,655.7569859027863,656.1056599617004,655.7569859027863,656.1056599617004,654.7481088638306,None,654.7481088638306,None,654.7481088638306,None,400,500,0,True,169.08669471740723,441.8981075286865,left,657.2381529808044,None,pp_11,icub,clamp,2021_Dec_22_1421,exp,2021.2.3,59.9574295937228,
right,stop,1,0,1,0,7,4,46,5,657.748605966568,None,1,0.6286499500274658,657.748605966568,None,658.4784669876099,None,659.4833559989929,659.8357458114624,659.4833559989929,659.8357458114624,658.4784669876099,None,658.4784669876099,None,658.4784669876099,None,350,500,0,True,137.35151290893555,561.6223812103271,right,661.0506458282471,None,pp_11,icub,clamp,2021_Dec_22_1421,exp,2021.2.3,59.9574295937228,
left,go,1,0,1,0,7,5,47,1,661.568393945694,None,1,0.459867000579834,661.568393945694,None,662.1522278785706,None,663.167279958725,663.4949078559875,663.167279958725,663.4949078559875,662.1522278785706,None,662.1522278785706,None,662.1522278785706,None,,,0,False,3000.7529258728027,-1.0,-1,667.03768491745,None,pp_11,icub,clamp,2021_Dec_22_1421,exp,2021.2.3,59.9574295937228,
left,go,1,0,1,0,8,0,48,1,667.5690989494324,None,1,0.6520068645477295,667.5690989494324,None,668.2967410087585,None,669.307000875473,669.6622698307037,669.307000875473,669.6622698307037,668.2967410087585,None,668.2967410087585,None,668.2967410087585,None,-1,-1,1,True,287.5330448150635,555.6297302246094,left,671.0419678688049,None,pp_11,icub,clamp,2021_Dec_22_1421,exp,2021.2.3,59.9574295937228,
left,go,1,0,1,0,8,1,49,1,671.5381789207458,None,1,0.43398213386535645,671.5381789207458,None,672.0807559490204,None,673.1044149398804,673.4448268413544,673.1044149398804,673.4448268413544,672.0807559490204,None,672.0807559490204,None,672.0807559490204,None,-1,-1,1,True,297.94955253601074,580.4378986358643,left,674.8435950279236,None,pp_11,icub,clamp,2021_Dec_22_1421,exp,2021.2.3,59.9574295937228,
left,go,1,0,1,0,8,2,50,1,675.3533549308777,None,1,0.36802196502685547,675.3533549308777,None,675.8311460018158,None,676.859678030014,677.2244808673859,676.859678030014,677.2244808673859,675.8311460018158,None,675.8311460018158,None,675.8311460018158,None,-1,-1,1,True,306.32948875427246,515.3555870056152,left,678.5266168117523,None,pp_11,icub,clamp,2021_Dec_22_1421,exp,2021.2.3,59.9574295937228,
left,stop,1,0,1,0,8,3,51,2,679.0438759326935,None,1,0.45558810234069824,679.0438759326935,None,679.5853660106659,None,680.5809228420258,680.9353668689728,680.5809228420258,680.9353668689728,679.5853660106659,None,679.5853660106659,None,679.5853660106659,None,350,450,0,True,299.9732494354248,506.52074813842773,left,682.2800488471985,None,pp_11,icub,clamp,2021_Dec_22_1421,exp,2021.2.3,59.9574295937228,
right,stop,1,0,1,0,8,4,52,5,682.798346042633,None,1,1.0281569957733154,682.798346042633,None,683.9449980258942,None,684.9459838867188,685.2972028255463,684.9459838867188,685.2972028255463,683.9449980258942,None,683.9449980258942,None,683.9449980258942,None,300,450,0,True,341.74299240112305,457.2560787200928,right,686.624235868454,None,pp_11,icub,clamp,2021_Dec_22_1421,exp,2021.2.3,59.9574295937228,
right,stop,1,0,1,0,8,5,53,5,687.138044834137,None,1,0.8984899520874023,687.138044834137,None,688.1696469783783,None,689.2023978233337,689.5525720119476,689.2023978233337,689.5525720119476,688.1696469783783,None,688.1696469783783,None,688.1696469783783,None,300,400,1,True,447.9787349700928,-1.0,-1,693.4985709190369,None,pp_11,icub,clamp,2021_Dec_22_1421,exp,2021.2.3,59.9574295937228,
right,stop,1,0,1,0,9,0,54,5,693.9933948516846,None,1,0.691295862197876,693.9933948516846,None,694.7925498485565,None,695.7849500179291,696.1298680305481,695.7849500179291,696.1298680305481,694.7925498485565,None,694.7925498485565,None,694.7925498485565,None,300,450,1,True,359.386682510376,-1.0,-1,700.047346830368,None,pp_11,icub,clamp,2021_Dec_22_1421,exp,2021.2.3,59.9574295937228,
right,go,1,0,1,0,9,1,55,4,700.5804738998413,None,1,0.4282240867614746,700.5804738998413,None,701.1314268112183,None,702.1087489128113,702.4669148921967,702.1087489128113,702.4669148921967,701.1314268112183,None,701.1314268112183,None,701.1314268112183,None,-1,-1,1,True,518.2933807373047,737.1401786804199,right,704.2556569576263,None,pp_11,icub,clamp,2021_Dec_22_1421,exp,2021.2.3,59.9574295937228,
left,go,1,0,1,0,9,2,56,1,704.7844228744507,None,1,0.385699987411499,704.7844228744507,None,705.2660579681396,None,706.2870578765869,706.6157329082489,706.2870578765869,706.6157329082489,705.2660579681396,None,705.2660579681396,None,705.2660579681396,None,-1,-1,1,True,379.8813819885254,547.1265316009521,left,708.0627999305725,None,pp_11,icub,clamp,2021_Dec_22_1421,exp,2021.2.3,59.9574295937228,
left,stop,1,0,1,0,9,3,57,2,708.5779068470001,None,1,0.3337690830230713,708.5779068470001,None,709.0298588275909,None,710.0447099208832,710.4061939716339,710.0447099208832,710.4061939716339,709.0298588275909,None,709.0298588275909,None,709.0298588275909,None,300,500,1,True,241.8351173400879,-1.0,-1,714.1816899776459,None,pp_11,icub,clamp,2021_Dec_22_1421,exp,2021.2.3,59.9574295937228,
right,go,1,0,1,0,9,4,58,3,714.7041389942169,None,1,0.39657020568847656,714.7041389942169,None,715.184191942215,None,716.1818869113922,716.5363438129425,716.1818869113922,716.5363438129425,715.184191942215,None,715.184191942215,None,715.184191942215,None,-1,-1,1,True,235.1858615875244,735.9046936035156,right,718.0371758937836,None,pp_11,icub,clamp,2021_Dec_22_1421,exp,2021.2.3,59.9574295937228,
left,stop,1,0,1,0,9,5,59,2,718.5585680007935,None,1,0.35449790954589844,718.5585680007935,None,719.0370788574219,None,720.0487608909607,720.3863818645477,720.0487608909607,720.3863818645477,719.0370788574219,None,719.0370788574219,None,719.0370788574219,None,350,500,1,True,343.56069564819336,-1.0,-1,724.2586660385132,None,pp_11,icub,clamp,2021_Dec_22_1421,exp,2021.2.3,59.9574295937228,
right,stop,1,0,1,0,10,0,60,5,724.7906289100647,None,1,2.698991060256958,724.7906289100647,None,727.5786688327789,None,728.5543808937073,728.9068748950958,728.5543808937073,728.9068748950958,727.5786688327789,None,727.5786688327789,None,727.5786688327789,None,400,500,0,True,332.0727348327637,668.6627864837646,right,730.4759879112244,None,pp_11,icub,clamp,2021_Dec_22_1421,exp,2021.2.3,59.9574295937228,
left,go,1,0,1,0,10,1,61,0,730.9736099243164,None,1,1.6433579921722412,730.9736099243164,None,732.6915879249573,None,733.6932229995728,734.0386929512024,733.6932229995728,734.0386929512024,732.6915879249573,None,732.6915879249573,None,732.6915879249573,None,-1,-1,1,True,308.5367679595947,631.0586929321289,left,735.5298278331757,None,pp_11,icub,clamp,2021_Dec_22_1421,exp,2021.2.3,59.9574295937228,
left,stop,1,0,1,0,10,2,62,2,736.0287828445435,None,1,0.272136926651001,736.0287828445435,None,736.386461019516,None,737.3836560249329,737.7409889698029,737.3836560249329,737.7409889698029,736.386461019516,None,736.386461019516,None,736.386461019516,None,400,450,0,True,777.3706912994385,508.55326652526855,left,739.564041852951,None,pp_11,icub,clamp,2021_Dec_22_1421,exp,2021.2.3,59.9574295937228,
left,go,1,0,1,0,10,3,63,1,740.059868812561,None,1,0.8145289421081543,740.059868812561,None,740.964761018753,None,741.9979808330536,742.3522729873657,741.9979808330536,742.3522729873657,740.964761018753,None,740.964761018753,None,740.964761018753,None,-1,-1,1,True,290.1787757873535,720.8313941955566,left,743.8534519672394,None,pp_11,icub,clamp,2021_Dec_22_1421,exp,2021.2.3,59.9574295937228,
left,stop,1,0,1,0,10,4,64,2,744.3656289577484,None,1,0.45151710510253906,744.3656289577484,None,744.9076390266418,None,745.9047839641571,746.2522230148315,745.9047839641571,746.2522230148315,744.9076390266418,None,744.9076390266418,None,744.9076390266418,None,350,450,1,True,325.8976936340332,-1.0,-1,750.1049380302429,None,pp_11,icub,clamp,2021_Dec_22_1421,exp,2021.2.3,59.9574295937228,
left,go,1,0,1,0,10,5,65,0,750.6365089416504,None,1,0.4230520725250244,750.6365089416504,None,751.187264919281,None,752.1912310123444,752.5321269035339,752.1912310123444,752.5321269035339,751.187264919281,None,751.187264919281,None,751.187264919281,None,-1,-1,1,True,174.88956451416016,594.1331386566162,left,753.833662033081,None,pp_11,icub,clamp,2021_Dec_22_1421,exp,2021.2.3,59.9574295937228,
left,go,1,0,1,0,11,0,66,1,754.3472638130188,None,1,0.4987490177154541,754.3472638130188,None,754.952075958252,None,755.9590198993683,756.3117308616638,755.9590198993683,756.3117308616638,754.952075958252,None,754.952075958252,None,754.952075958252,None,-1,-1,1,True,123.16560745239258,567.8699016571045,left,757.5173239707947,None,pp_11,icub,clamp,2021_Dec_22_1421,exp,2021.2.3,59.9574295937228,
right,go,1,0,1,0,11,1,67,3,758.0343508720398,None,1,0.35224199295043945,758.0343508720398,None,758.4889979362488,None,759.4976119995117,759.8340079784393,759.4976119995117,759.8340079784393,758.4889979362488,None,758.4889979362488,None,758.4889979362488,None,-1,-1,1,True,328.55939865112305,590.6016826629639,right,761.3125619888306,None,pp_11,icub,clamp,2021_Dec_22_1421,exp,2021.2.3,59.9574295937228,
right,go,1,0,1,0,11,2,68,3,761.828017950058,None,1,0.3360099792480469,761.828017950058,None,762.2493758201599,None,763.2527499198914,763.6113939285278,763.2527499198914,763.6113939285278,762.2493758201599,None,762.2493758201599,None,762.2493758201599,None,-1,-1,1,True,245.03064155578613,503.1781196594238,right,764.8916130065918,None,pp_11,icub,clamp,2021_Dec_22_1421,exp,2021.2.3,59.9574295937228,
right,go,1,0,1,0,11,3,69,3,765.4106798171997,None,1,0.38736486434936523,765.4106798171997,None,765.8886609077454,None,766.9234728813171,767.2809708118439,766.9234728813171,767.2809708118439,765.8886609077454,None,765.8886609077454,None,765.8886609077454,None,-1,-1,1,True,227.15497016906738,606.2502861022949,right,768.6047339439392,None,pp_11,icub,clamp,2021_Dec_22_1421,exp,2021.2.3,59.9574295937228,
left,go,1,0,1,0,11,4,70,1,769.1378090381622,None,1,0.4412398338317871,769.1378090381622,None,769.6797049045563,None,770.6760158538818,771.0457718372345,770.6760158538818,771.0457718372345,769.6797049045563,None,769.6797049045563,None,769.6797049045563,None,-1,-1,1,True,318.8762664794922,640.8820152282715,left,772.5274038314819,None,pp_11,icub,clamp,2021_Dec_22_1421,exp,2021.2.3,59.9574295937228,
left,go,1,0,1,0,11,5,71,0,773.0486168861389,None,1,0.23049187660217285,773.0486168861389,None,773.4013969898224,None,774.4150269031525,774.745157957077,774.4150269031525,774.745157957077,773.4013969898224,None,773.4013969898224,None,773.4013969898224,None,-1,-1,1,True,303.5585880279541,505.39493560791016,left,776.0833640098572,None,pp_11,icub,clamp,2021_Dec_22_1421,exp,2021.2.3,59.9574295937228,
left,stop,1,0,1,0,12,0,72,2,776.6024038791656,None,1,0.2798168659210205,776.6024038791656,None,777.0056810379028,None,778.0017669200897,778.352413892746,778.0017669200897,778.352413892746,777.0056810379028,None,777.0056810379028,None,777.0056810379028,None,400,450,0,True,359.4169616699219,474.1027355194092,left,779.7255589962006,None,pp_11,icub,clamp,2021_Dec_22_1421,exp,2021.2.3,59.9574295937228,
right,stop,1,0,1,0,12,1,73,5,780.2330319881439,None,1,1.3211278915405273,780.2330319881439,None,781.6429989337921,None,782.6501989364624,783.0031988620758,782.6501989364624,783.0031988620758,781.6429989337921,None,781.6429989337921,None,781.6429989337921,None,350,450,0,True,232.31148719787598,475.40283203125,right,784.2385919094086,None,pp_11,icub,clamp,2021_Dec_22_1421,exp,2021.2.3,59.9574295937228,
left,go,1,0,1,0,12,2,74,1,784.7597918510437,None,1,0.7921481132507324,784.7597918510437,None,785.670902967453,None,786.691018819809,787.0393948554993,786.691018819809,787.0393948554993,785.670902967453,None,785.670902967453,None,785.670902967453,None,-1,-1,1,True,314.41807746887207,713.0396366119385,left,788.6033940315247,None,pp_11,icub,clamp,2021_Dec_22_1421,exp,2021.2.3,59.9574295937228,
left,stop,1,0,1,0,12,3,75,2,789.1223609447479,None,1,0.4466550350189209,789.1223609447479,None,789.6639380455017,None,790.6608040332794,791.0048818588257,790.6608040332794,791.0048818588257,789.6639380455017,None,789.6639380455017,None,789.6639380455017,None,350,400,1,True,308.8407516479492,-1.0,-1,794.8435800075531,None,pp_11,icub,clamp,2021_Dec_22_1421,exp,2021.2.3,59.9574295937228,
left,go,1,0,1,0,12,4,76,0,795.3758590221405,None,1,5.073496103286743,795.3758590221405,None,800.5639879703522,None,801.5507538318634,801.8984568119049,801.5507538318634,801.8984568119049,800.5639879703522,None,800.5639879703522,None,800.5639879703522,None,-1,-1,1,True,268.5225009918213,661.170244216919,left,803.3584268093109,None,pp_11,icub,clamp,2021_Dec_22_1421,exp,2021.2.3,59.9574295937228,
left,go,1,0,1,0,12,5,77,1,803.8782458305359,None,1,0.22683382034301758,803.8782458305359,None,804.2335758209229,None,805.2411618232727,805.5723249912262,805.2411618232727,805.5723249912262,804.2335758209229,None,804.2335758209229,None,804.2335758209229,None,-1,-1,1,True,372.9095458984375,729.2444705963135,left,807.2344019412994,None,pp_11,icub,clamp,2021_Dec_22_1421,exp,2021.2.3,59.9574295937228,
left,stop,2,0,2,0,0,0,0,2,820.8679640293121,None,1,31.919984102249146,820.8679640293121,None,852.8886179924011,None,853.8926029205322,854.2532470226288,853.8926029205322,854.2532470226288,852.8886179924011,None,852.8886179924011,None,852.8886179924011,None,400,400,0,True,314.3796920776367,560.1258277893066,left,855.651515007019,None,pp_11,icub,clamp,2021_Dec_22_1421,exp,2021.2.3,59.9574295937228,
left,go,2,0,2,0,0,1,1,0,856.1569418907166,None,1,0.734935998916626,856.1569418907166,None,857.0073058605194,None,858.0207278728485,858.3659508228302,858.0207278728485,858.3659508228302,857.0073058605194,None,857.0073058605194,None,857.0073058605194,None,-1,-1,1,True,337.23998069763184,744.1294193267822,left,860.0004019737244,None,pp_11,icub,clamp,2021_Dec_22_1421,exp,2021.2.3,59.9574295937228,
right,go,2,0,2,0,0,2,2,3,860.5097839832306,None,1,0.4038820266723633,860.5097839832306,None,861.0513069629669,None,862.050295829773,862.4096229076385,862.050295829773,862.4096229076385,861.0513069629669,None,861.0513069629669,None,861.0513069629669,None,-1,-1,1,True,298.85244369506836,622.7738857269287,right,863.8603148460388,None,pp_11,icub,clamp,2021_Dec_22_1421,exp,2021.2.3,59.9574295937228,
left,go,2,0,2,0,0,3,3,1,864.3723850250244,None,1,0.4726748466491699,864.3723850250244,None,864.9726469516754,None,865.9715209007263,866.3229160308838,865.9715209007263,866.3229160308838,864.9726469516754,None,864.9726469516754,None,864.9726469516754,None,-1,-1,1,True,201.66492462158203,665.6591892242432,left,867.724035024643,None,pp_11,icub,clamp,2021_Dec_22_1421,exp,2021.2.3,59.9574295937228,
left,stop,2,0,2,0,0,4,4,2,868.2447559833527,None,1,0.19969797134399414,868.2447559833527,None,868.539176940918,None,869.5650768280029,869.8933248519897,869.5650768280029,869.8933248519897,868.539176940918,None,868.539176940918,None,868.539176940918,None,,,0,False,-1.0,-1.0,-1,870.4244859218597,None,pp_11,icub,clamp,2021_Dec_22_1421,exp,2021.2.3,59.9574295937228,
right,go,2,0,2,0,0,5,5,3,870.9191398620605,None,1,0.5773539543151855,870.9191398620605,None,871.5941870212555,None,872.5992159843445,872.9545798301697,872.5992159843445,872.9545798301697,871.5941870212555,None,871.5941870212555,None,871.5941870212555,None,-1,-1,1,True,490.6303882598877,632.73024559021,right,874.5973830223083,None,pp_11,icub,clamp,2021_Dec_22_1421,exp,2021.2.3,59.9574295937228,
right,stop,2,0,2,0,1,0,6,5,875.117516040802,None,1,0.2761528491973877,875.117516040802,None,875.474133014679,None,876.4684870243073,876.8298528194427,876.4684870243073,876.8298528194427,875.474133014679,None,875.474133014679,None,875.474133014679,None,350,400,1,True,274.20544624328613,-1.0,-1,880.6365549564362,None,pp_11,icub,clamp,2021_Dec_22_1421,exp,2021.2.3,59.9574295937228,
left,stop,2,0,2,0,1,1,7,2,881.1689169406891,None,1,0.7301881313323975,881.1689169406891,None,882.028825044632,None,883.0294539928436,883.3785488605499,883.0294539928436,883.3785488605499,882.028825044632,None,882.028825044632,None,882.028825044632,None,350,450,1,True,276.23867988586426,-1.0,-1,887.1758329868317,None,pp_11,icub,clamp,2021_Dec_22_1421,exp,2021.2.3,59.9574295937228,
right,go,2,0,2,0,1,2,8,4,887.707300901413,None,1,0.3997800350189209,887.707300901413,None,888.1957688331604,None,889.1798598766327,889.5409259796143,889.1798598766327,889.5409259796143,888.1957688331604,None,888.1957688331604,None,888.1957688331604,None,,,0,False,-1.0,-1.0,-1,889.8140559196472,None,pp_11,icub,clamp,2021_Dec_22_1421,exp,2021.2.3,59.9574295937228,
right,stop,2,0,2,0,1,3,9,5,890.3434178829193,None,1,1.3216350078582764,890.3434178829193,None,891.7583858966827,None,892.7376899719238,893.1002910137177,892.7376899719238,893.1002910137177,891.7583858966827,None,891.7583858966827,None,891.7583858966827,None,400,450,1,True,828.1493186950684,-1.0,-1,897.4703350067139,None,pp_11,icub,clamp,2021_Dec_22_1421,exp,2021.2.3,59.9574295937228,
right,stop,2,0,2,0,1,4,10,5,897.9659199714661,None,1,0.49423789978027344,897.9659199714661,None,898.5786528587341,None,899.5917768478394,899.9501278400421,899.5917768478394,899.9501278400421,898.5786528587341,None,898.5786528587341,None,898.5786528587341,None,400,500,0,True,239.0453815460205,521.087646484375,right,901.2238428592682,None,pp_11,icub,clamp,2021_Dec_22_1421,exp,2021.2.3,59.9574295937228,
right,go,2,0,2,0,1,5,11,4,901.7199418544769,None,1,0.649500846862793,901.7199418544769,None,902.4496748447418,None,903.4499268531799,903.804878950119,903.4499268531799,903.804878950119,902.4496748447418,None,902.4496748447418,None,902.4496748447418,None,-1,-1,1,True,363.62719535827637,665.9822463989258,right,905.3739058971405,None,pp_11,icub,clamp,2021_Dec_22_1421,exp,2021.2.3,59.9574295937228,
right,stop,2,0,2,0,2,0,12,5,905.8753249645233,None,1,0.3650970458984375,905.8753249645233,None,906.3543679714203,None,907.3783960342407,907.7404110431671,907.3783960342407,907.7404110431671,906.3543679714203,None,906.3543679714203,None,906.3543679714203,None,400,450,1,True,269.4060802459717,-1.0,-1,911.5005738735199,None,pp_11,icub,clamp,2021_Dec_22_1421,exp,2021.2.3,59.9574295937228,
right,go,2,0,2,0,2,1,13,3,912.0313940048218,None,1,0.4126441478729248,912.0313940048218,None,912.5833170413971,None,913.5847489833832,913.9447429180145,913.5847489833832,913.9447429180145,912.5833170413971,None,912.5833170413971,None,912.5833170413971,None,-1,-1,1,True,328.31621170043945,562.718391418457,right,915.3664009571075,None,pp_11,icub,clamp,2021_Dec_22_1421,exp,2021.2.3,59.9574295937228,
right,go,2,0,2,0,2,2,14,4,915.8728590011597,None,1,0.5604979991912842,915.8728590011597,None,916.5390088558197,None,917.5574059486389,917.8905539512634,917.5574059486389,917.8905539512634,916.5390088558197,None,916.5390088558197,None,916.5390088558197,None,-1,-1,1,True,291.58473014831543,493.4871196746826,right,919.2082509994507,None,pp_11,icub,clamp,2021_Dec_22_1421,exp,2021.2.3,59.9574295937228,
right,go,2,0,2,0,2,3,15,4,919.7154250144958,None,1,0.22311806678771973,919.7154250144958,None,920.0142500400543,None,921.0172729492188,921.3468539714813,921.0172729492188,921.3468539714813,920.0142500400543,None,920.0142500400543,None,920.0142500400543,None,-1,-1,1,True,343.7349796295166,712.2218608856201,right,922.9742858409882,None,pp_11,icub,clamp,2021_Dec_22_1421,exp,2021.2.3,59.9574295937228,
left,go,2,0,2,0,2,4,16,0,923.499529838562,None,1,0.06711792945861816,923.499529838562,None,923.6681818962097,None,924.6638579368591,925.0137689113617,924.6638579368591,925.0137689113617,923.6681818962097,None,923.6681818962097,None,923.6681818962097,None,-1,-1,1,True,244.88091468811035,579.4539451599121,left,926.3720428943634,None,pp_11,icub,clamp,2021_Dec_22_1421,exp,2021.2.3,59.9574295937228,
left,go,2,0,2,0,2,5,17,1,926.878937959671,None,1,0.285599946975708,926.878937959671,None,927.2925870418549,None,928.3285398483276,928.6817109584808,928.3285398483276,928.6817109584808,927.2925870418549,None,927.2925870418549,None,927.2925870418549,None,-1,-1,1,True,274.0049362182617,494.0614700317383,left,929.9401459693909,None,pp_11,icub,clamp,2021_Dec_22_1421,exp,2021.2.3,59.9574295937228,
right,stop,2,0,2,0,3,0,18,5,930.4746489524841,None,1,0.24463391304016113,930.4746489524841,None,930.8297889232635,None,931.8470280170441,932.2033338546753,931.8470280170441,932.2033338546753,930.8297889232635,None,930.8297889232635,None,930.8297889232635,None,400,500,0,True,287.1534824371338,454.9884796142578,right,933.4769170284271,None,pp_11,icub,clamp,2021_Dec_22_1421,exp,2021.2.3,59.9574295937228,
left,go,2,0,2,0,3,1,19,1,933.9820849895477,None,1,0.8910431861877441,933.9820849895477,None,934.9582908153534,None,935.9682140350342,936.3287060260773,935.9682140350342,936.3287060260773,934.9582908153534,None,934.9582908153534,None,934.9582908153534,None,-1,-1,1,True,304.9948215484619,472.09858894348145,left,937.6160428524017,None,pp_11,icub,clamp,2021_Dec_22_1421,exp,2021.2.3,59.9574295937228,
left,stop,2,0,2,0,3,2,20,2,938.1361119747162,None,1,0.13272905349731445,938.1361119747162,None,938.3703298568726,None,939.3943598270416,939.7421560287476,939.3943598270416,939.7421560287476,938.3703298568726,None,938.3703298568726,None,938.3703298568726,None,400,450,0,True,205.8544158935547,487.3948097229004,left,940.9681448936462,None,pp_11,icub,clamp,2021_Dec_22_1421,exp,2021.2.3,59.9574295937228,
right,go,2,0,2,0,3,3,21,3,941.4754710197449,None,1,0.4009060859680176,941.4754710197449,None,941.9568898677826,None,942.981470823288,943.3320598602295,942.981470823288,943.3320598602295,941.9568898677826,None,941.9568898677826,None,941.9568898677826,None,-1,-1,1,True,327.92186737060547,823.0941295623779,right,945.0128898620605,None,pp_11,icub,clamp,2021_Dec_22_1421,exp,2021.2.3,59.9574295937228,
left,stop,2,0,2,0,3,4,22,2,945.5305089950562,None,1,0.37077999114990234,945.5305089950562,None,946.0110368728638,None,947.0118069648743,947.3709919452667,947.0118069648743,947.3709919452667,946.0110368728638,None,946.0110368728638,None,946.0110368728638,None,350,450,1,True,337.63718605041504,-1.0,-1,951.2251088619232,None,pp_11,icub,clamp,2021_Dec_22_1421,exp,2021.2.3,59.9574295937228,
right,go,2,0,2,0,3,5,23,3,951.7562959194183,None,1,0.39722609519958496,951.7562959194183,None,952.2735760211945,None,953.2866559028625,953.6399660110474,953.2866559028625,953.6399660110474,952.2735760211945,None,952.2735760211945,None,952.2735760211945,None,-1,-1,1,True,314.24975395202637,467.6179885864258,right,954.9470489025116,None,pp_11,icub,clamp,2021_Dec_22_1421,exp,2021.2.3,59.9574295937228,
right,stop,2,0,2,0,4,0,24,5,955.4564979076385,None,1,0.10710382461547852,955.4564979076385,None,955.6864290237427,None,956.6863739490509,957.0401270389557,956.6863739490509,957.0401270389557,955.6864290237427,None,955.6864290237427,None,955.6864290237427,None,400,450,0,True,269.44804191589355,399.34682846069336,right,958.2446458339691,None,pp_11,icub,clamp,2021_Dec_22_1421,exp,2021.2.3,59.9574295937228,
left,go,2,0,2,0,4,1,25,1,958.7517609596252,None,1,0.4522280693054199,958.7517609596252,None,959.2974288463593,None,960.2961089611053,960.6486740112305,960.2961089611053,960.6486740112305,959.2974288463593,None,959.2974288463593,None,959.2974288463593,None,-1,-1,1,True,298.71153831481934,507.57551193237305,left,961.9929850101471,None,pp_11,icub,clamp,2021_Dec_22_1421,exp,2021.2.3,59.9574295937228,
right,go,2,0,2,0,4,2,26,4,962.5039458274841,None,1,0.19320297241210938,962.5039458274841,None,962.7982409000397,None,963.8048229217529,964.1524288654327,963.8048229217529,964.1524288654327,962.7982409000397,None,962.7982409000397,None,962.7982409000397,None,-1,-1,1,True,256.9429874420166,635.6799602508545,right,965.5668849945068,None,pp_11,icub,clamp,2021_Dec_22_1421,exp,2021.2.3,59.9574295937228,
left,go,2,0,2,0,4,3,27,1,966.0911028385162,None,1,0.04569101333618164,966.0911028385162,None,966.261109828949,None,967.2599539756775,967.6212680339813,967.2599539756775,967.6212680339813,966.261109828949,None,966.261109828949,None,966.261109828949,None,-1,-1,1,True,323.8673210144043,485.9330654144287,left,968.9543778896332,None,pp_11,icub,clamp,2021_Dec_22_1421,exp,2021.2.3,59.9574295937228,
left,go,2,0,2,0,4,4,28,0,969.4855849742889,None,1,0.17085599899291992,969.4855849742889,None,969.7793278694153,None,970.8039720058441,971.140280008316,970.8039720058441,971.140280008316,969.7793278694153,None,969.7793278694153,None,969.7793278694153,None,-1,-1,1,True,401.714563369751,557.9500198364258,left,972.6260809898376,None,pp_11,icub,clamp,2021_Dec_22_1421,exp,2021.2.3,59.9574295937228,
right,stop,2,0,2,0,4,5,29,5,973.1425518989563,None,1,0.18669605255126953,973.1425518989563,None,973.437148809433,None,974.4336760044098,974.7878308296204,974.4336760044098,974.7878308296204,973.437148809433,None,973.437148809433,None,973.437148809433,None,400,400,0,True,349.6885299682617,473.2820987701416,right,976.1751058101654,None,pp_11,icub,clamp,2021_Dec_22_1421,exp,2021.2.3,59.9574295937228,
left,go,2,0,2,0,5,0,30,1,976.695641040802,None,1,0.36280202865600586,976.695641040802,None,977.1785559654236,None,978.1808698177338,978.5288610458374,978.1808698177338,978.5288610458374,977.1785559654236,None,977.1785559654236,None,977.1785559654236,None,-1,-1,1,True,939.5787715911865,421.2820529937744,left,980.4193069934845,None,pp_11,icub,clamp,2021_Dec_22_1421,exp,2021.2.3,59.9574295937228,
left,go,2,0,2,0,5,1,31,0,980.9373910427094,None,1,0.16553997993469238,980.9373910427094,None,981.2201538085938,None,982.2234349250793,982.5806360244751,982.2234349250793,982.5806360244751,981.2201538085938,None,981.2201538085938,None,981.2201538085938,None,-1,-1,1,True,163.3625030517578,441.4069652557373,left,983.7078859806061,None,pp_11,icub,clamp,2021_Dec_22_1421,exp,2021.2.3,59.9574295937228,
left,go,2,0,2,0,5,2,32,0,984.2344698905945,None,1,0.03374481201171875,984.2344698905945,None,984.3433849811554,None,985.3382918834686,985.6641118526459,985.3382918834686,985.6641118526459,984.3433849811554,None,984.3433849811554,None,984.3433849811554,None,-1,-1,1,True,290.6079292297363,437.6363754272461,left,986.9659168720245,None,pp_11,icub,clamp,2021_Dec_22_1421,exp,2021.2.3,59.9574295937228,
left,go,2,0,2,0,5,3,33,1,987.4923079013824,None,1,0.06857705116271973,987.4923079013824,None,987.6676650047302,None,988.6995139122009,989.0575499534607,988.6995139122009,989.0575499534607,987.6676650047302,None,987.6676650047302,None,987.6676650047302,None,-1,-1,1,True,206.41565322875977,409.9094867706299,left,990.1659739017487,None,pp_11,icub,clamp,2021_Dec_22_1421,exp,2021.2.3,59.9574295937228,
right,go,2,0,2,0,5,4,34,3,990.6822609901428,None,1,0.031900882720947266,990.6822609901428,None,990.7947340011597,None,991.7919988632202,992.1521639823914,991.7919988632202,992.1521639823914,990.7947340011597,None,990.7947340011597,None,990.7947340011597,None,-1,-1,1,True,269.01793479919434,417.4380302429199,right,993.3542289733887,None,pp_11,icub,clamp,2021_Dec_22_1421,exp,2021.2.3,59.9574295937228,
right,go,2,0,2,0,5,5,35,4,993.8838829994202,None,1,3.241196870803833,993.8838829994202,None,997.2227709293365,None,998.2297129631042,998.562127828598,998.2297129631042,998.562127828598,997.2227709293365,None,997.2227709293365,None,997.2227709293365,None,,,0,False,3000.2224445343018,-1.0,-1,1002.1009969711304,None,pp_11,icub,clamp,2021_Dec_22_1421,exp,2021.2.3,59.9574295937228,
right,go,2,0,2,0,6,0,36,4,1002.594887971878,None,1,0.5093021392822266,1002.594887971878,None,1003.1995708942413,None,1004.1884698867798,1004.5564479827881,1004.1884698867798,1004.5564479827881,1003.1995708942413,None,1003.1995708942413,None,1003.1995708942413,None,-1,-1,1,True,299.3130683898926,341.48645401000977,right,1005.734974861145,None,pp_11,icub,clamp,2021_Dec_22_1421,exp,2021.2.3,59.9574295937228,
left,stop,2,0,2,0,6,1,37,2,1006.2416129112244,None,1,0.24812912940979004,1006.2416129112244,None,1006.5966060161591,None,1007.6035778522491,1007.9522998332977,1007.6035778522491,1007.9522998332977,1006.5966060161591,None,1006.5966060161591,None,1006.5966060161591,None,400,350,0,True,274.6539115905762,470.8828926086426,left,1009.2327768802643,None,pp_11,icub,clamp,2021_Dec_22_1421,exp,2021.2.3,59.9574295937228,
left,stop,2,0,2,0,6,2,38,2,1009.7443878650665,None,1,0.8678140640258789,1009.7443878650665,None,1010.7181308269501,None,1011.7172479629517,1012.0463399887085,1011.7172479629517,1012.0463399887085,1010.7181308269501,None,1010.7181308269501,None,1010.7181308269501,None,350,350,0,True,266.61014556884766,455.71327209472656,left,1013.3429658412933,None,pp_11,icub,clamp,2021_Dec_22_1421,exp,2021.2.3,59.9574295937228,
left,go,2,0,2,0,6,3,39,0,1013.8615639209747,None,1,0.40857696533203125,1013.8615639209747,None,1014.3985660076141,None,1015.416620016098,1015.7758870124817,1015.416620016098,1015.7758870124817,1014.3985660076141,None,1014.3985660076141,None,1014.3985660076141,None,-1,-1,1,True,364.96782302856445,701.5347480773926,left,1017.3635859489441,None,pp_11,icub,clamp,2021_Dec_22_1421,exp,2021.2.3,59.9574295937228,
right,go,2,0,2,0,6,4,40,4,1017.8609228134155,None,1,0.10037398338317871,1017.8609228134155,None,1018.0900800228119,None,1019.0889348983765,1019.4456980228424,1019.0889348983765,1019.4456980228424,1018.0900800228119,None,1018.0900800228119,None,1018.0900800228119,None,-1,-1,1,True,246.34766578674316,644.7365283966064,right,1020.8685228824615,None,pp_11,icub,clamp,2021_Dec_22_1421,exp,2021.2.3,59.9574295937228,
right,stop,2,0,2,0,6,5,41,5,1021.3815789222717,None,1,0.13037586212158203,1021.3815789222717,None,1021.6180100440979,None,1022.6355600357056,1022.9823429584503,1022.6355600357056,1022.9823429584503,1021.6180100440979,None,1021.6180100440979,None,1021.6180100440979,None,300,350,0,True,298.3355522155762,376.3456344604492,right,1024.184427022934,None,pp_11,icub,clamp,2021_Dec_22_1421,exp,2021.2.3,59.9574295937228,
right,stop,2,0,2,0,7,0,42,5,1024.7095749378204,None,1,0.3284571170806885,1024.7095749378204,None,1025.1094179153442,None,1026.129413843155,1026.4672889709473,1026.129413843155,1026.4672889709473,1025.1094179153442,None,1025.1094179153442,None,1025.1094179153442,None,300,300,1,True,240.04077911376953,-1.0,-1,1030.2474269866943,None,pp_11,icub,clamp,2021_Dec_22_1421,exp,2021.2.3,59.9574295937228,
left,go,2,0,2,0,7,1,43,0,1030.7410998344421,None,1,0.04550814628601074,1030.7410998344421,None,1030.9202349185944,None,1031.9045338630676,1032.2674050331116,1031.9045338630676,1032.2674050331116,1030.9202349185944,None,1030.9202349185944,None,1030.9202349185944,None,-1,-1,1,True,47.39832878112793,484.44390296936035,left,1033.3305690288544,None,pp_11,icub,clamp,2021_Dec_22_1421,exp,2021.2.3,59.9574295937228,
right,go,2,0,2,0,7,2,44,3,1033.8513798713684,None,1,0.9239621162414551,1033.8513798713684,None,1034.8868358135223,None,1035.9206159114838,1036.2766888141632,1035.9206159114838,1036.2766888141632,1034.8868358135223,None,1034.8868358135223,None,1034.8868358135223,None,-1,-1,1,True,266.3745880126953,409.3601703643799,right,1037.4456088542938,None,pp_11,icub,clamp,2021_Dec_22_1421,exp,2021.2.3,59.9574295937228,
right,stop,2,0,2,0,7,3,45,5,1037.9472739696503,None,1,0.1867051124572754,1037.9472739696503,None,1038.2410259246826,None,1039.2515330314636,1039.5990688800812,1039.2515330314636,1039.5990688800812,1038.2410259246826,None,1038.2410259246826,None,1038.2410259246826,None,300,350,0,True,352.54788398742676,360.837459564209,right,1040.8375778198242,None,pp_11,icub,clamp,2021_Dec_22_1421,exp,2021.2.3,59.9574295937228,
right,go,2,0,2,0,7,4,46,4,1041.3402078151703,None,1,0.443774938583374,1041.3402078151703,None,1041.8852608203888,None,1042.887857913971,1043.2439198493958,1042.887857913971,1043.2439198493958,1041.8852608203888,None,1041.8852608203888,None,1041.8852608203888,None,-1,-1,1,True,311.0663890838623,411.44466400146484,right,1044.4991970062256,None,pp_11,icub,clamp,2021_Dec_22_1421,exp,2021.2.3,59.9574295937228,
left,go,2,0,2,0,7,5,47,0,1045.0153210163116,None,1,2.1401898860931396,1045.0153210163116,None,1047.262230873108,None,1048.2363150119781,1048.5935118198395,1048.2363150119781,1048.5935118198395,1047.262230873108,None,1047.262230873108,None,1047.262230873108,None,-1,-1,1,True,365.614652633667,343.6729907989502,left,1049.8680698871613,None,pp_11,icub,clamp,2021_Dec_22_1421,exp,2021.2.3,59.9574295937228,
right,go,2,0,2,0,8,0,48,4,1050.3891940116882,None,1,3.46730899810791,1050.3891940116882,None,1053.969094991684,None,1054.9513499736786,1055.3101298809052,1054.9513499736786,1055.3101298809052,1053.969094991684,None,1053.969094991684,None,1053.969094991684,None,-1,-1,1,True,410.94279289245605,368.3633804321289,right,1056.6241300106049,None,pp_11,icub,clamp,2021_Dec_22_1421,exp,2021.2.3,59.9574295937228,
left,go,2,0,2,0,8,1,49,1,1057.133062839508,None,1,0.05499982833862305,1057.133062839508,None,1057.30459690094,None,1058.3052999973297,1058.6654109954834,1058.3052999973297,1058.6654109954834,1057.30459690094,None,1057.30459690094,None,1057.30459690094,None,-1,-1,1,True,307.73019790649414,431.23459815979004,left,1059.9293270111084,None,pp_11,icub,clamp,2021_Dec_22_1421,exp,2021.2.3,59.9574295937228,
left,go,2,0,2,0,8,2,50,1,1060.440083026886,None,1,0.048922061920166016,1060.440083026886,None,1060.6129729747772,None,1061.6083879470825,1061.9701850414276,1061.6083879470825,1061.9701850414276,1060.6129729747772,None,1060.6129729747772,None,1060.6129729747772,None,-1,-1,1,True,299.45874214172363,412.54401206970215,left,1063.1983909606934,None,pp_11,icub,clamp,2021_Dec_22_1421,exp,2021.2.3,59.9574295937228,
left,stop,2,0,2,0,8,3,51,2,1063.712777853012,None,1,2.8545079231262207,1063.712777853012,None,1066.6755049228668,None,1067.6484608650208,1068.0195488929749,1067.6484608650208,1068.0195488929749,1066.6755049228668,None,1066.6755049228668,None,1066.6755049228668,None,300,300,0,True,379.3148994445801,452.1453380584717,left,1069.3887159824371,None,pp_11,icub,clamp,2021_Dec_22_1421,exp,2021.2.3,59.9574295937228,
right,stop,2,0,2,0,8,4,52,5,1069.8971500396729,None,1,0.7847449779510498,1069.8971500396729,None,1070.8058698177338,None,1071.814216852188,1072.160113811493,1071.814216852188,1072.160113811493,1070.8058698177338,None,1070.8058698177338,None,1070.8058698177338,None,250,300,1,True,297.3661422729492,-1.0,-1,1075.996819972992,None,pp_11,icub,clamp,2021_Dec_22_1421,exp,2021.2.3,59.9574295937228,
right,go,2,0,2,0,8,5,53,3,1076.491751909256,None,1,0.45171308517456055,1076.491751909256,None,1077.0439820289612,None,1078.024011850357,1078.3796548843384,1078.024011850357,1078.3796548843384,1077.0439820289612,None,1077.0439820289612,None,1077.0439820289612,None,-1,-1,1,True,327.5644779205322,741.8913841247559,right,1079.9756519794464,None,pp_11,icub,clamp,2021_Dec_22_1421,exp,2021.2.3,59.9574295937228,
left,go,2,0,2,0,9,0,54,1,1080.4926958084106,None,1,0.042038917541503906,1080.4926958084106,None,1080.6573038101196,None,1081.6767179965973,1082.0415139198303,1081.6767179965973,1082.0415139198303,1080.6573038101196,None,1080.6573038101196,None,1080.6573038101196,None,-1,-1,1,True,346.4028835296631,517.5619125366211,left,1083.426687002182,None,pp_11,icub,clamp,2021_Dec_22_1421,exp,2021.2.3,59.9574295937228,
left,stop,2,0,2,0,9,1,55,2,1083.9508588314056,None,1,3.6935880184173584,1083.9508588314056,None,1087.724159002304,None,1088.7102949619293,1089.0618720054626,1088.7102949619293,1089.0618720054626,1087.724159002304,None,1087.724159002304,None,1087.724159002304,None,250,350,0,True,395.16735076904297,380.29956817626953,left,1090.4084248542786,None,pp_11,icub,clamp,2021_Dec_22_1421,exp,2021.2.3,59.9574295937228,
left,go,2,0,2,0,9,2,56,0,1090.9001948833466,None,1,0.9330179691314697,1090.9001948833466,None,1091.9241540431976,None,1092.9499468803406,1093.30876994133,1092.9499468803406,1093.30876994133,1091.9241540431976,None,1091.9241540431976,None,1091.9241540431976,None,-1,-1,1,True,353.7299633026123,561.0299110412598,left,1094.7164478302002,None,pp_11,icub,clamp,2021_Dec_22_1421,exp,2021.2.3,59.9574295937228,
right,go,2,0,2,0,9,3,57,3,1095.2322409152985,None,1,0.07623910903930664,1095.2322409152985,None,1095.4030389785767,None,1096.3992328643799,1096.7629408836365,1096.3992328643799,1096.7629408836365,1095.4030389785767,None,1095.4030389785767,None,1095.4030389785767,None,-1,-1,1,True,358.8423728942871,445.10507583618164,right,1098.0981538295746,None,pp_11,icub,clamp,2021_Dec_22_1421,exp,2021.2.3,59.9574295937228,
left,go,2,0,2,0,9,4,58,1,1098.6087210178375,None,1,0.06617593765258789,1098.6087210178375,None,1098.7808759212494,None,1099.7959640026093,1100.154814004898,1099.7959640026093,1100.154814004898,1098.7808759212494,None,1098.7808759212494,None,1098.7808759212494,None,-1,-1,1,True,532.6635837554932,760.1578235626221,left,1101.9744758605957,None,pp_11,icub,clamp,2021_Dec_22_1421,exp,2021.2.3,59.9574295937228,
right,stop,2,0,2,0,9,5,59,5,1102.49174284935,None,1,0.1373589038848877,1102.49174284935,None,1102.7163639068604,None,1103.733167886734,1104.0671310424805,1103.733167886734,1104.0671310424805,1102.7163639068604,None,1102.7163639068604,None,1102.7163639068604,None,200,350,0,True,336.31420135498047,442.4161911010742,right,1105.3834459781647,None,pp_11,icub,clamp,2021_Dec_22_1421,exp,2021.2.3,59.9574295937228,
right,go,2,0,2,0,10,0,60,4,1105.8939979076385,None,1,0.5919492244720459,1105.8939979076385,None,1106.6182448863983,None,1107.6142280101776,1107.9591119289398,1107.6142280101776,1107.9591119289398,1106.6182448863983,None,1106.6182448863983,None,1106.6182448863983,None,-1,-1,1,True,329.0822505950928,577.4657726287842,right,1109.434199810028,None,pp_11,icub,clamp,2021_Dec_22_1421,exp,2021.2.3,59.9574295937228,
left,go,2,0,2,0,10,1,61,1,1109.9349179267883,None,1,3.385411024093628,1109.9349179267883,None,1113.4510848522186,None,1114.4256629943848,1114.7805228233337,1114.4256629943848,1114.7805228233337,1113.4510848522186,None,1113.4510848522186,None,1113.4510848522186,None,-1,-1,1,True,118.54958534240723,368.3459758758545,left,1115.8012809753418,None,pp_11,icub,clamp,2021_Dec_22_1421,exp,2021.2.3,59.9574295937228,
right,go,2,0,2,0,10,2,62,3,1116.3138468265533,None,1,3.892477035522461,1116.3138468265533,None,1120.3340768814087,None,1121.3083279132843,1121.6318228244781,1121.3083279132843,1121.6318228244781,1120.3340768814087,None,1120.3340768814087,None,1120.3340768814087,None,,,0,False,3000.640869140625,-1.0,-1,1125.212110042572,None,pp_11,icub,clamp,2021_Dec_22_1421,exp,2021.2.3,59.9574295937228,
left,go,2,0,2,0,10,3,63,0,1125.7093529701233,None,1,0.8489589691162109,1125.7093529701233,None,1126.695713043213,None,1127.6850788593292,1128.010668039322,1127.6850788593292,1128.010668039322,1126.695713043213,None,1126.695713043213,None,1126.695713043213,None,-1,-1,1,True,312.2437000274658,412.294864654541,left,1129.3066890239716,None,pp_11,icub,clamp,2021_Dec_22_1421,exp,2021.2.3,59.9574295937228,
left,stop,2,0,2,0,10,4,64,2,1129.8184688091278,None,1,0.1693439483642578,1129.8184688091278,None,1130.1115899085999,None,1131.1418809890747,1131.5017929077148,1131.1418809890747,1131.5017929077148,1130.1115899085999,None,1130.1115899085999,None,1130.1115899085999,None,200,300,1,True,337.89539337158203,-1.0,-1,1135.3551259040833,None,pp_11,icub,clamp,2021_Dec_22_1421,exp,2021.2.3,59.9574295937228,
right,stop,2,0,2,0,10,5,65,5,1135.8869199752808,None,1,0.5012640953063965,1135.8869199752808,None,1136.500247001648,None,1137.5117700099945,1137.8620948791504,1137.5117700099945,1137.8620948791504,1136.500247001648,None,1136.500247001648,None,1136.500247001648,None,250,300,1,True,384.46927070617676,-1.0,-1,1141.7705099582672,None,pp_11,icub,clamp,2021_Dec_22_1421,exp,2021.2.3,59.9574295937228,
right,go,2,0,2,0,11,0,66,4,1142.302836894989,None,1,0.11522698402404785,1142.302836894989,None,1142.5450530052185,None,1143.5307638645172,1143.868068933487,1143.5307638645172,1143.868068933487,1142.5450530052185,None,1142.5450530052185,None,1142.5450530052185,None,-1,-1,1,True,520.0746059417725,715.461015701294,right,1145.657637834549,None,pp_11,icub,clamp,2021_Dec_22_1421,exp,2021.2.3,59.9574295937228,
left,stop,2,0,2,0,11,1,67,2,1146.1692788600922,None,1,0.4464869499206543,1146.1692788600922,None,1146.7110459804535,None,1147.705312013626,1148.0355260372162,1147.705312013626,1148.0355260372162,1146.7110459804535,None,1146.7110459804535,None,1146.7110459804535,None,250,350,1,True,267.78721809387207,-1.0,-1,1151.8483848571777,None,pp_11,icub,clamp,2021_Dec_22_1421,exp,2021.2.3,59.9574295937228,
right,go,2,0,2,0,11,2,68,3,1152.3806459903717,None,1,0.4884500503540039,1152.3806459903717,None,1152.9924249649048,None,1153.9783809185028,1154.3328349590302,1153.9783809185028,1154.3328349590302,1152.9924249649048,None,1152.9924249649048,None,1152.9924249649048,None,-1,-1,1,True,208.00280570983887,837.5248908996582,right,1155.9110119342804,None,pp_11,icub,clamp,2021_Dec_22_1421,exp,2021.2.3,59.9574295937228,
left,go,2,0,2,0,11,3,69,0,1156.4294710159302,None,1,0.47235989570617676,1156.4294710159302,None,1157.0292208194733,None,1158.0609319210052,1158.4147849082947,1158.0609319210052,1158.4147849082947,1157.0292208194733,None,1157.0292208194733,None,1157.0292208194733,None,-1,-1,1,True,423.3989715576172,463.12975883483887,left,1159.787395954132,None,pp_11,icub,clamp,2021_Dec_22_1421,exp,2021.2.3,59.9574295937228,
right,go,2,0,2,0,11,4,70,3,1160.317792892456,None,1,1.417564868927002,1160.317792892456,None,1161.8241398334503,None,1162.8365499973297,1163.1876649856567,1162.8365499973297,1163.1876649856567,1161.8241398334503,None,1161.8241398334503,None,1161.8241398334503,None,-1,-1,1,True,328.9003372192383,626.3377666473389,right,1164.6723549365997,None,pp_11,icub,clamp,2021_Dec_22_1421,exp,2021.2.3,59.9574295937228,
left,stop,2,0,2,0,11,5,71,2,1165.1840348243713,None,1,0.06181502342224121,1165.1840348243713,None,1165.3564898967743,None,1166.3752019405365,1166.7358498573303,1166.3752019405365,1166.7358498573303,1165.3564898967743,None,1165.3564898967743,None,1165.3564898967743,None,300,350,0,True,418.2424545288086,357.8815460205078,left,1168.0402410030365,None,pp_11,icub,clamp,2021_Dec_22_1421,exp,2021.2.3,59.9574295937228,
right,go,2,0,2,0,12,0,72,4,1168.5691769123077,None,1,0.5674488544464111,1168.5691769123077,None,1169.2368459701538,None,1170.2700018882751,1170.6352388858795,1170.2700018882751,1170.6352388858795,1169.2368459701538,None,1169.2368459701538,None,1169.2368459701538,None,-1,-1,1,True,319.08416748046875,400.82645416259766,right,1171.8350739479065,None,pp_11,icub,clamp,2021_Dec_22_1421,exp,2021.2.3,59.9574295937228,
left,go,2,0,2,0,12,1,73,0,1172.3542540073395,None,1,0.11232304573059082,1172.3542540073395,None,1172.5908319950104,None,1173.6088478565216,1173.968966960907,1173.6088478565216,1173.968966960907,1172.5908319950104,None,1172.5908319950104,None,1172.5908319950104,None,-1,-1,1,True,401.61967277526855,389.30273056030273,left,1175.2926199436188,None,pp_11,icub,clamp,2021_Dec_22_1421,exp,2021.2.3,59.9574295937228,
left,go,2,0,2,0,12,2,74,1,1175.7984068393707,None,1,0.08063983917236328,1175.7984068393707,None,1175.9697818756104,None,1177.0009729862213,1177.3532419204712,1177.0009729862213,1177.3532419204712,1175.9697818756104,None,1175.9697818756104,None,1175.9697818756104,None,-1,-1,1,True,46.04363441467285,412.3716354370117,left,1178.299810886383,None,pp_11,icub,clamp,2021_Dec_22_1421,exp,2021.2.3,59.9574295937228,
right,go,2,0,2,0,12,3,75,3,1178.8254840373993,None,1,2.1956660747528076,1178.8254840373993,None,1181.1590008735657,None,1182.145252943039,1182.5020380020142,1182.145252943039,1182.5020380020142,1181.1590008735657,None,1181.1590008735657,None,1181.1590008735657,None,,,0,False,-1.0,-1.0,-1,1182.948117017746,None,pp_11,icub,clamp,2021_Dec_22_1421,exp,2021.2.3,59.9574295937228,
left,stop,2,0,2,0,12,4,76,2,1183.4631469249725,None,1,0.8606071472167969,1183.4631469249725,None,1184.4245028495789,None,1185.4317660331726,1185.79647397995,1185.4317660331726,1185.79647397995,1184.4245028495789,None,1184.4245028495789,None,1184.4245028495789,None,250,350,0,True,383.9151859283447,419.3224906921387,left,1187.108256816864,None,pp_11,icub,clamp,2021_Dec_22_1421,exp,2021.2.3,59.9574295937228,
left,go,2,0,2,0,12,5,77,0,1187.6116049289703,None,1,1.0359630584716797,1187.6116049289703,None,1188.771872997284,None,1189.789223909378,1190.1552469730377,1189.789223909378,1190.1552469730377,1188.771872997284,None,1188.771872997284,None,1188.771872997284,None,-1,-1,1,True,315.02819061279297,639.0631198883057,left,1191.6360669136047,None,pp_11,icub,clamp,2021_Dec_22_1421,exp,2021.2.3,59.9574295937228,
left,go,3,0,3,0,0,0,0,0,1205.6265828609467,None,1,8.926527976989746,1205.6265828609467,None,1214.6808698177338,None,1215.6864960193634,1216.013948917389,1215.6864960193634,1216.013948917389,1214.6808698177338,None,1214.6808698177338,None,1214.6808698177338,None,-1,-1,1,True,407.8364372253418,371.51193618774414,left,1217.3614909648895,None,pp_11,icub,clamp,2021_Dec_22_1421,exp,2021.2.3,59.9574295937228,
right,go,3,0,3,0,0,1,1,3,1217.8755569458008,None,1,0.08725214004516602,1217.8755569458008,None,1218.048259973526,None,1219.065759897232,1219.4320340156555,1219.065759897232,1219.4320340156555,1218.048259973526,None,1218.048259973526,None,1218.048259973526,None,-1,-1,1,True,221.8458652496338,341.7668342590332,right,1220.5201919078827,None,pp_11,icub,clamp,2021_Dec_22_1421,exp,2021.2.3,59.9574295937228,
right,go,3,0,3,0,0,2,2,3,1221.0567078590393,None,1,0.1117701530456543,1221.0567078590393,None,1221.2875108718872,None,1222.2950749397278,1222.6391689777374,1222.2950749397278,1222.6391689777374,1221.2875108718872,None,1221.2875108718872,None,1221.2875108718872,None,-1,-1,1,True,219.70534324645996,445.4965591430664,right,1223.836912870407,None,pp_11,icub,clamp,2021_Dec_22_1421,exp,2021.2.3,59.9574295937228,
right,go,3,0,3,0,0,3,3,4,1224.3536310195923,None,1,2.8773248195648193,1224.3536310195923,None,1227.3515570163727,None,1228.326611995697,1228.6567158699036,1228.326611995697,1228.6567158699036,1227.3515570163727,None,1227.3515570163727,None,1227.3515570163727,None,-1,-1,1,True,119.66490745544434,506.3595771789551,right,1229.8577890396118,None,pp_11,icub,clamp,2021_Dec_22_1421,exp,2021.2.3,59.9574295937228,
left,go,3,0,3,0,0,4,4,1,1230.3722608089447,None,1,3.287703037261963,1230.3722608089447,None,1233.7456679344177,None,1234.7553408145905,1235.1098639965057,1234.7553408145905,1235.1098639965057,1233.7456679344177,None,1233.7456679344177,None,1233.7456679344177,None,-1,-1,1,True,237.015962600708,374.0429878234863,left,1236.25293302536,None,pp_11,icub,clamp,2021_Dec_22_1421,exp,2021.2.3,59.9574295937228,
right,go,3,0,3,0,0,5,5,3,1236.7538678646088,None,1,0.15154099464416504,1236.7538678646088,None,1236.9909720420837,None,1237.9960289001465,1238.342519044876,1237.9960289001465,1238.342519044876,1236.9909720420837,None,1236.9909720420837,None,1236.9909720420837,None,-1,-1,1,True,280.487060546875,425.32801628112793,right,1239.581452846527,None,pp_11,icub,clamp,2021_Dec_22_1421,exp,2021.2.3,59.9574295937228,
right,go,3,0,3,0,1,0,6,4,1240.1083238124847,None,1,0.12847495079040527,1240.1083238124847,None,1240.340059041977,None,1241.360286951065,1241.719929933548,1241.360286951065,1241.719929933548,1240.340059041977,None,1240.340059041977,None,1240.340059041977,None,-1,-1,1,True,222.95379638671875,353.90448570251465,right,1242.8279049396515,None,pp_11,icub,clamp,2021_Dec_22_1421,exp,2021.2.3,59.9574295937228,
right,go,3,0,3,0,1,1,7,4,1243.3476328849792,None,1,0.0685880184173584,1243.3476328849792,None,1243.5177268981934,None,1244.550899028778,1244.9036178588867,1244.550899028778,1244.9036178588867,1243.5177268981934,None,1243.5177268981934,None,1243.5177268981934,None,-1,-1,1,True,331.620454788208,1071.033000946045,right,1246.8283598423004,None,pp_11,icub,clamp,2021_Dec_22_1421,exp,2021.2.3,59.9574295937228,
left,stop,3,0,3,0,1,2,8,2,1247.3478028774261,None,1,0.07507085800170898,1247.3478028774261,None,1247.5239579677582,None,1248.5421748161316,1248.896842956543,1248.5421748161316,1248.896842956543,1247.5239579677582,None,1247.5239579677582,None,1247.5239579677582,None,200,350,0,True,342.2279357910156,392.0300006866455,left,1250.1486070156097,None,pp_11,icub,clamp,2021_Dec_22_1421,exp,2021.2.3,59.9574295937228,
right,stop,3,0,3,0,1,3,9,5,1250.66237783432,None,1,0.6130449771881104,1250.66237783432,None,1251.3914499282837,None,1252.4167129993439,1252.7746968269348,1252.4167129993439,1252.7746968269348,1251.3914499282837,None,1251.3914499282837,None,1251.3914499282837,None,150,350,0,True,356.71067237854004,408.2918167114258,right,1254.0316009521484,None,pp_11,icub,clamp,2021_Dec_22_1421,exp,2021.2.3,59.9574295937228,
right,go,3,0,3,0,1,4,10,4,1254.5389409065247,None,1,0.5703630447387695,1254.5389409065247,None,1255.210021018982,None,1256.2363970279694,1256.5858838558197,1256.2363970279694,1256.5858838558197,1255.210021018982,None,1255.210021018982,None,1255.210021018982,None,-1,-1,1,True,607.3336601257324,531.0215950012207,right,1258.25306391716,None,pp_11,icub,clamp,2021_Dec_22_1421,exp,2021.2.3,59.9574295937228,
left,go,3,0,3,0,1,5,11,1,1258.7707998752594,None,1,0.2016429901123047,1258.7707998752594,None,1259.068193912506,None,1260.088546037674,1260.4347448349,1260.088546037674,1260.4347448349,1259.068193912506,None,1259.068193912506,None,1259.068193912506,None,-1,-1,1,True,923.8953590393066,359.21382904052734,left,1262.2466359138489,None,pp_11,icub,clamp,2021_Dec_22_1421,exp,2021.2.3,59.9574295937228,
right,stop,3,0,3,0,2,0,12,5,1262.7634518146515,None,1,0.3708000183105469,1262.7634518146515,None,1263.2448348999023,None,1264.2532029151917,1264.6139538288116,1264.2532029151917,1264.6139538288116,1263.2448348999023,None,1263.2448348999023,None,1263.2448348999023,None,150,300,0,True,267.8964138031006,384.9778175354004,right,1265.7947969436646,None,pp_11,icub,clamp,2021_Dec_22_1421,exp,2021.2.3,59.9574295937228,
