Holder,Action,blocks.thisRepN,blocks.thisTrialN,blocks.thisN,blocks.thisIndex,trials.thisRepN,trials.thisTrialN,trials.thisN,trials.thisIndex,start_msg.started,start_msg.stopped,RespButton_start_trial.keys,RespButton_start_trial.rt,RespButton_start_trial.started,RespButton_start_trial.stopped,GREEN.started,GREEN.stopped,LEFT_RED.started,LEFT_RED.stopped,RIGHT_RED.started,RIGHT_RED.stopped,LEFT_CIRCLE.started,LEFT_CIRCLE.stopped,CENTER_CIRCLE.started,CENTER_CIRCLE.stopped,RIGHT_CIRCLE.started,RIGHT_CIRCLE.stopped,SOUND_DELAY_MS_LEFT,SOUND_DELAY_MS_RIGHT,CORRECT,VALIDITY,RELEASE_TIME,TOUCH_TIME,BOTTLE_RESPONSE_POSITION,text.started,text.stopped,pid,left_position,right_position,date,expName,psychopyVersion,frameRate,
left,go,0,0,0,0,0,0,0,1,62.81966710090637,None,1,27.91854190826416,62.81966710090637,None,90.84514498710632,None,91.84928512573242,92.20008206367493,91.84928512573242,92.20008206367493,90.84514498710632,None,90.84514498710632,None,90.84514498710632,None,-1,-1,1,True,377.4106502532959,498.08430671691895,left,93.60572099685669,None,pp_10,icub,clamp,2021_Dec_22_1118,exp,2021.2.3,60.03054265452021,
left,stop,0,0,0,0,0,1,1,2,94.12883615493774,None,1,0.9041640758514404,94.12883615493774,None,95.14862298965454,None,96.1720061302185,96.53137803077698,96.1720061302185,96.53137803077698,95.14862298965454,None,95.14862298965454,None,95.14862298965454,None,500,500,0,True,566.0138130187988,459.1860771179199,left,98.05195808410645,None,pp_10,icub,clamp,2021_Dec_22_1118,exp,2021.2.3,60.03054265452021,
right,go,0,0,0,0,0,2,2,4,98.57288408279419,None,1,0.9561929702758789,98.57288408279419,None,99.60946106910706,None,100.60463809967041,100.9546389579773,100.60463809967041,100.9546389579773,99.60946106910706,None,99.60946106910706,None,99.60946106910706,None,-1,-1,1,True,415.388822555542,618.9374923706055,right,102.5575180053711,None,pp_10,icub,clamp,2021_Dec_22_1118,exp,2021.2.3,60.03054265452021,
left,stop,0,0,0,0,0,3,3,2,103.07569003105164,None,1,0.6903409957885742,103.07569003105164,None,103.85653805732727,None,104.85868906974792,105.21783399581909,104.85868906974792,105.21783399581909,103.85653805732727,None,103.85653805732727,None,103.85653805732727,None,450,500,1,True,940.0277137756348,-1.0,-1,109.68871712684631,None,pp_10,icub,clamp,2021_Dec_22_1118,exp,2021.2.3,60.03054265452021,
left,go,0,0,0,0,0,4,4,0,110.21218204498291,None,1,0.7014081478118896,110.21218204498291,None,111.00775003433228,None,111.99058103561401,112.35515403747559,111.99058103561401,112.35515403747559,111.00775003433228,None,111.00775003433228,None,111.00775003433228,None,-1,-1,1,True,323.3625888824463,526.5276432037354,left,113.7384741306305,None,pp_10,icub,clamp,2021_Dec_22_1118,exp,2021.2.3,60.03054265452021,
right,go,0,0,0,0,0,5,5,4,114.25439405441284,None,1,0.7816741466522217,114.25439405441284,None,115.16323709487915,None,116.16564106941223,116.53582501411438,116.16564106941223,116.53582501411438,115.16323709487915,None,115.16323709487915,None,115.16323709487915,None,-1,-1,1,True,67.69251823425293,612.2541427612305,right,117.74306797981262,None,pp_10,icub,clamp,2021_Dec_22_1118,exp,2021.2.3,60.03054265452021,
left,stop,0,0,0,0,1,0,6,2,118.25834012031555,None,1,0.7219040393829346,118.25834012031555,None,119.10858201980591,None,120.1235830783844,120.471853017807,120.1235830783844,120.471853017807,119.10858201980591,None,119.10858201980591,None,119.10858201980591,None,500,500,1,True,318.1309700012207,-1.0,-1,124.31926202774048,None,pp_10,icub,clamp,2021_Dec_22_1118,exp,2021.2.3,60.03054265452021,
right,go,0,0,0,0,1,1,7,3,124.85104703903198,None,1,0.6324779987335205,124.85104703903198,None,125.58692216873169,None,126.56424903869629,126.90169310569763,126.56424903869629,126.90169310569763,125.58692216873169,None,125.58692216873169,None,125.58692216873169,None,-1,-1,1,True,387.70556449890137,715.8050537109375,right,128.57351207733154,None,pp_10,icub,clamp,2021_Dec_22_1118,exp,2021.2.3,60.03054265452021,
right,stop,0,0,0,0,1,2,8,5,129.0786120891571,None,1,0.7964019775390625,129.0786120891571,None,129.98931217193604,None,131.00320410728455,131.33131217956543,131.00320410728455,131.33131217956543,129.98931217193604,None,129.98931217193604,None,129.98931217193604,None,550,500,1,True,541.3258075714111,-1.0,-1,135.40287899971008,None,pp_10,icub,clamp,2021_Dec_22_1118,exp,2021.2.3,60.03054265452021,
left,go,0,0,0,0,1,3,9,0,135.9332239627838,None,1,0.5831928253173828,135.9332239627838,None,136.60620617866516,None,137.6009020805359,137.95631504058838,137.6009020805359,137.95631504058838,136.60620617866516,None,136.60620617866516,None,136.60620617866516,None,-1,-1,1,True,314.65768814086914,518.3167457580566,left,139.31158995628357,None,pp_10,icub,clamp,2021_Dec_22_1118,exp,2021.2.3,60.03054265452021,
right,go,0,0,0,0,1,4,10,3,139.81835198402405,None,1,0.969702959060669,139.81835198402405,None,140.9112319946289,None,141.90739703178406,142.26246094703674,141.90739703178406,142.26246094703674,140.9112319946289,None,140.9112319946289,None,140.9112319946289,None,-1,-1,1,True,288.3179187774658,715.3244018554688,right,143.79910898208618,None,pp_10,icub,clamp,2021_Dec_22_1118,exp,2021.2.3,60.03054265452021,
left,go,0,0,0,0,1,5,11,1,144.30700707435608,None,1,0.7087039947509766,144.30700707435608,None,145.09617710113525,None,146.1156280040741,146.47667598724365,146.1156280040741,146.47667598724365,145.09617710113525,None,145.09617710113525,None,145.09617710113525,None,-1,-1,1,True,433.734655380249,656.7232608795166,left,148.09565114974976,None,pp_10,icub,clamp,2021_Dec_22_1118,exp,2021.2.3,60.03054265452021,
left,stop,0,0,0,0,2,0,12,2,148.61316299438477,None,1,0.7335128784179688,148.61316299438477,None,149.46548295021057,None,150.4787449836731,150.84093117713928,150.4787449836731,150.84093117713928,149.46548295021057,None,149.46548295021057,None,149.46548295021057,None,550,550,0,True,344.30527687072754,560.1541996002197,left,152.27467012405396,None,pp_10,icub,clamp,2021_Dec_22_1118,exp,2021.2.3,60.03054265452021,
left,go,0,0,0,0,2,1,13,0,152.79149508476257,None,1,0.7572641372680664,152.79149508476257,None,153.64424014091492,None,154.66972398757935,155.01778101921082,154.66972398757935,155.01778101921082,153.64424014091492,None,153.64424014091492,None,153.64424014091492,None,-1,-1,1,True,339.2653465270996,504.3156147003174,left,156.38455510139465,None,pp_10,icub,clamp,2021_Dec_22_1118,exp,2021.2.3,60.03054265452021,
left,stop,0,0,0,0,2,2,14,2,156.88224411010742,None,1,0.6165640354156494,156.88224411010742,None,157.61078310012817,None,158.62077116966248,158.96023201942444,158.62077116966248,158.96023201942444,157.61078310012817,None,157.61078310012817,None,157.61078310012817,None,500,550,0,True,300.9810447692871,545.5293655395508,left,160.3425691127777,None,pp_10,icub,clamp,2021_Dec_22_1118,exp,2021.2.3,60.03054265452021,
right,go,0,0,0,0,2,3,15,3,160.8382589817047,None,1,0.7347609996795654,160.8382589817047,None,161.68859696388245,None,162.70353817939758,163.05529403686523,162.70353817939758,163.05529403686523,161.68859696388245,None,161.68859696388245,None,161.68859696388245,None,-1,-1,1,True,412.61863708496094,717.381477355957,right,164.70849609375,None,pp_10,icub,clamp,2021_Dec_22_1118,exp,2021.2.3,60.03054265452021,
right,stop,0,0,0,0,2,4,16,5,165.21346712112427,None,1,0.6062881946563721,165.21346712112427,None,165.93975710868835,None,166.93613815307617,167.29465103149414,166.93613815307617,167.29465103149414,165.93975710868835,None,165.93975710868835,None,165.93975710868835,None,450,550,0,True,340.3515815734863,659.5866680145264,right,168.84642910957336,None,pp_10,icub,clamp,2021_Dec_22_1118,exp,2021.2.3,60.03054265452021,
right,go,0,0,0,0,2,5,17,4,169.34944415092468,None,1,1.0640919208526611,169.34944415092468,None,170.5140221118927,None,171.5164930820465,171.8839991092682,171.5164930820465,171.8839991092682,170.5140221118927,None,170.5140221118927,None,170.5140221118927,None,-1,-1,1,True,364.36986923217773,505.22565841674805,right,173.2888171672821,None,pp_10,icub,clamp,2021_Dec_22_1118,exp,2021.2.3,60.03054265452021,
right,stop,0,0,0,0,3,0,18,5,173.80967116355896,None,1,0.7691760063171387,173.80967116355896,None,174.65914702415466,None,175.6589651107788,176.00781416893005,175.6589651107788,176.00781416893005,174.65914702415466,None,174.65914702415466,None,174.65914702415466,None,450,500,1,True,449.12195205688477,-1.0,-1,180.01698303222656,None,pp_10,icub,clamp,2021_Dec_22_1118,exp,2021.2.3,60.03054265452021,
left,go,0,0,0,0,3,1,19,0,180.5481469631195,None,1,0.6040329933166504,180.5481469631195,None,181.28321313858032,None,182.26665806770325,182.62196516990662,182.26665806770325,182.62196516990662,181.28321313858032,None,181.28321313858032,None,181.28321313858032,None,-1,-1,1,True,993.9091205596924,537.379264831543,left,184.68560099601746,None,pp_10,icub,clamp,2021_Dec_22_1118,exp,2021.2.3,60.03054265452021,
right,go,0,0,0,0,3,2,20,4,185.18632006645203,None,1,0.6604280471801758,185.18632006645203,None,185.97082495689392,None,186.98049402236938,187.34665513038635,186.98049402236938,187.34665513038635,185.97082495689392,None,185.97082495689392,None,185.97082495689392,None,-1,-1,1,True,319.86403465270996,510.9977722167969,right,188.70747113227844,None,pp_10,icub,clamp,2021_Dec_22_1118,exp,2021.2.3,60.03054265452021,
left,go,0,0,0,0,3,3,21,1,189.22110414505005,None,1,0.625514030456543,189.22110414505005,None,189.94859910011292,None,190.96576499938965,191.32768511772156,190.96576499938965,191.32768511772156,189.94859910011292,None,189.94859910011292,None,189.94859910011292,None,-1,-1,1,True,530.7159423828125,755.5253505706787,left,193.14425897598267,None,pp_10,icub,clamp,2021_Dec_22_1118,exp,2021.2.3,60.03054265452021,
right,stop,0,0,0,0,3,4,22,5,193.6794149875641,None,1,1.0106267929077148,193.6794149875641,None,194.78085708618164,None,195.7902491092682,196.14823508262634,195.7902491092682,196.14823508262634,194.78085708618164,None,194.78085708618164,None,194.78085708618164,None,450,550,0,True,510.469913482666,711.4486694335938,right,197.89915704727173,None,pp_10,icub,clamp,2021_Dec_22_1118,exp,2021.2.3,60.03054265452021,
right,go,0,0,0,0,3,5,23,3,198.39489102363586,None,1,0.9356460571289062,198.39489102363586,None,199.4310700893402,None,200.42832899093628,200.78629112243652,200.42832899093628,200.78629112243652,199.4310700893402,None,199.4310700893402,None,199.4310700893402,None,-1,-1,1,True,344.73419189453125,442.4622058868408,right,202.09636616706848,None,pp_10,icub,clamp,2021_Dec_22_1118,exp,2021.2.3,60.03054265452021,
left,go,0,0,0,0,4,0,24,0,202.59791207313538,None,1,0.7265610694885254,202.59791207313538,None,203.4480640888214,None,204.45125007629395,204.82301211357117,204.45125007629395,204.82301211357117,203.4480640888214,None,203.4480640888214,None,203.4480640888214,None,-1,-1,1,True,452.7750015258789,545.7403659820557,left,206.35204195976257,None,pp_10,icub,clamp,2021_Dec_22_1118,exp,2021.2.3,60.03054265452021,
right,go,0,0,0,0,4,1,25,4,206.85543513298035,None,1,0.5734548568725586,206.85543513298035,None,207.52482509613037,None,208.5264551639557,208.88479113578796,208.5264551639557,208.88479113578796,207.52482509613037,None,207.52482509613037,None,207.52482509613037,None,-1,-1,1,True,495.07617950439453,835.5250358581543,right,210.72431015968323,None,pp_10,icub,clamp,2021_Dec_22_1118,exp,2021.2.3,60.03054265452021,
left,go,0,0,0,0,4,2,26,1,211.2404510974884,None,1,0.515113115310669,211.2404510974884,None,211.84618711471558,None,212.8527181148529,213.20726108551025,212.8527181148529,213.20726108551025,211.84618711471558,None,211.84618711471558,None,211.84618711471558,None,-1,-1,1,True,594.9811935424805,931.9400787353516,left,215.25385999679565,None,pp_10,icub,clamp,2021_Dec_22_1118,exp,2021.2.3,60.03054265452021,
left,go,0,0,0,0,4,3,27,1,215.76439595222473,None,1,0.5073010921478271,215.76439595222473,None,216.37236309051514,None,217.36429405212402,217.71614503860474,217.36429405212402,217.71614503860474,216.37236309051514,None,216.37236309051514,None,216.37236309051514,None,-1,-1,1,True,427.5326728820801,960.7758522033691,left,219.6662299633026,None,pp_10,icub,clamp,2021_Dec_22_1118,exp,2021.2.3,60.03054265452021,
right,go,0,0,0,0,4,4,28,3,220.19229412078857,None,1,0.5614900588989258,220.19229412078857,None,220.8605670928955,None,221.8651020526886,222.2293291091919,221.8651020526886,222.2293291091919,220.8605670928955,None,220.8605670928955,None,220.8605670928955,None,-1,-1,1,True,425.7330894470215,1004.1823387145996,right,224.1846239566803,None,pp_10,icub,clamp,2021_Dec_22_1118,exp,2021.2.3,60.03054265452021,
right,stop,0,0,0,0,4,5,29,5,224.68821501731873,None,1,0.6347270011901855,224.68821501731873,None,225.4175100326538,None,226.4268560409546,226.78660202026367,226.4268560409546,226.78660202026367,225.4175100326538,None,225.4175100326538,None,225.4175100326538,None,450,500,1,True,495.69225311279297,-1.0,-1,230.80364108085632,None,pp_10,icub,clamp,2021_Dec_22_1118,exp,2021.2.3,60.03054265452021,
right,go,0,0,0,0,5,0,30,3,231.33521008491516,None,1,0.9907491207122803,231.33521008491516,None,232.43943214416504,None,233.46791005134583,233.7953860759735,233.46791005134583,233.7953860759735,232.43943214416504,None,232.43943214416504,None,232.43943214416504,None,-1,-1,1,True,341.85338020324707,502.6707649230957,right,235.17209815979004,None,pp_10,icub,clamp,2021_Dec_22_1118,exp,2021.2.3,60.03054265452021,
left,go,0,0,0,0,5,1,31,0,235.70758509635925,None,1,0.7770071029663086,235.70758509635925,None,236.61765313148499,None,237.64223909378052,238.00153517723083,237.64223909378052,238.00153517723083,236.61765313148499,None,236.61765313148499,None,236.61765313148499,None,-1,-1,1,True,330.3813934326172,618.9424991607666,left,239.43905305862427,None,pp_10,icub,clamp,2021_Dec_22_1118,exp,2021.2.3,60.03054265452021,
right,stop,0,0,0,0,5,2,32,5,239.94904208183289,None,1,0.7848241329193115,239.94904208183289,None,240.86143112182617,None,241.88521313667297,242.24471807479858,241.88521313667297,242.24471807479858,240.86143112182617,None,240.86143112182617,None,240.86143112182617,None,450,550,1,True,361.13977432250977,-1.0,-1,246.09956216812134,None,pp_10,icub,clamp,2021_Dec_22_1118,exp,2021.2.3,60.03054265452021,
right,stop,0,0,0,0,5,3,33,5,246.63133597373962,None,1,0.6686069965362549,246.63133597373962,None,247.4293179512024,None,248.44995212554932,248.80382013320923,248.44995212554932,248.80382013320923,247.4293179512024,None,247.4293179512024,None,247.4293179512024,None,450,600,0,True,401.5522003173828,531.9812297821045,right,250.2627899646759,None,pp_10,icub,clamp,2021_Dec_22_1118,exp,2021.2.3,60.03054265452021,
right,stop,0,0,0,0,5,4,34,5,250.78260707855225,None,1,0.779973030090332,250.78260707855225,None,251.69084906578064,None,252.69629502296448,253.05057311058044,252.69629502296448,253.05057311058044,251.69084906578064,None,251.69084906578064,None,251.69084906578064,None,450,550,0,True,489.73798751831055,631.018877029419,right,254.69399404525757,None,pp_10,icub,clamp,2021_Dec_22_1118,exp,2021.2.3,60.03054265452021,
right,stop,0,0,0,0,5,5,35,5,255.21216106414795,None,1,0.48261094093322754,255.21216106414795,None,255.81241703033447,None,256.83543705940247,257.1839289665222,256.83543705940247,257.1839289665222,255.81241703033447,None,255.81241703033447,None,255.81241703033447,None,450,500,0,True,832.1256637573242,642.4133777618408,right,259.1771311759949,None,pp_10,icub,clamp,2021_Dec_22_1118,exp,2021.2.3,60.03054265452021,
right,go,0,0,0,0,6,0,36,3,259.69034004211426,None,1,0.7741210460662842,259.69034004211426,None,260.5451600551605,None,261.5679590702057,261.9156081676483,261.5679590702057,261.9156081676483,260.5451600551605,None,260.5451600551605,None,260.5451600551605,None,-1,-1,1,True,710.3626728057861,975.7442474365234,right,264.1253111362457,None,pp_10,icub,clamp,2021_Dec_22_1118,exp,2021.2.3,60.03054265452021,
left,stop,0,0,0,0,6,1,37,2,264.6406259536743,None,1,0.7728350162506104,264.6406259536743,None,265.49394607543945,None,266.49374413490295,266.8521180152893,266.49374413490295,266.8521180152893,265.49394607543945,None,265.49394607543945,None,265.49394607543945,None,450,450,1,True,542.9222583770752,-1.0,-1,270.9120509624481,None,pp_10,icub,clamp,2021_Dec_22_1118,exp,2021.2.3,60.03054265452021,
left,go,0,0,0,0,6,2,38,1,271.443293094635,None,1,0.6075620651245117,271.443293094635,None,272.18068408966064,None,273.15739607810974,273.50403904914856,273.15739607810974,273.50403904914856,272.18068408966064,None,272.18068408966064,None,272.18068408966064,None,-1,-1,1,True,377.31266021728516,967.5159454345703,left,275.4122121334076,None,pp_10,icub,clamp,2021_Dec_22_1118,exp,2021.2.3,60.03054265452021,
right,go,0,0,0,0,6,3,39,3,275.9216010570526,None,1,0.7389252185821533,275.9216010570526,None,276.7739200592041,None,277.8037781715393,278.16059613227844,277.8037781715393,278.16059613227844,276.7739200592041,None,276.7739200592041,None,276.7739200592041,None,-1,-1,1,True,790.3459072113037,832.0131301879883,right,280.26707005500793,None,pp_10,icub,clamp,2021_Dec_22_1118,exp,2021.2.3,60.03054265452021,
right,go,0,0,0,0,6,4,40,3,280.7779459953308,None,1,0.6245291233062744,280.7779459953308,None,281.504802942276,None,282.53084111213684,282.88542199134827,282.53084111213684,282.88542199134827,281.504802942276,None,281.504802942276,None,281.504802942276,None,-1,-1,1,True,644.1922187805176,1099.3294715881348,right,285.15204095840454,None,pp_10,icub,clamp,2021_Dec_22_1118,exp,2021.2.3,60.03054265452021,
left,go,0,0,0,0,6,5,41,0,285.6575360298157,None,1,0.576286792755127,285.6575360298157,None,286.31413102149963,None,287.33651208877563,287.68747997283936,287.33651208877563,287.68747997283936,286.31413102149963,None,286.31413102149963,None,286.31413102149963,None,-1,-1,1,True,733.839750289917,965.6162261962891,left,289.90934801101685,None,pp_10,icub,clamp,2021_Dec_22_1118,exp,2021.2.3,60.03054265452021,
right,go,0,0,0,0,7,0,42,4,290.43753004074097,None,1,0.6990020275115967,290.43753004074097,None,291.2270050048828,None,292.22040605545044,292.5665590763092,292.22040605545044,292.5665590763092,291.2270050048828,None,291.2270050048828,None,291.2270050048828,None,-1,-1,1,True,437.03269958496094,1269.406795501709,right,294.8046929836273,None,pp_10,icub,clamp,2021_Dec_22_1118,exp,2021.2.3,60.03054265452021,
right,go,0,0,0,0,7,1,43,3,295.31404209136963,None,1,0.8692600727081299,295.31404209136963,None,296.2897460460663,None,297.28500294685364,297.63120794296265,297.28500294685364,297.63120794296265,296.2897460460663,None,296.2897460460663,None,296.2897460460663,None,-1,-1,1,True,555.3069114685059,880.5544376373291,right,299.62000012397766,None,pp_10,icub,clamp,2021_Dec_22_1118,exp,2021.2.3,60.03054265452021,
right,go,0,0,0,0,7,2,44,4,300.1146049499512,None,1,0.600632905960083,300.1146049499512,None,300.8317940235138,None,301.861212015152,302.2239999771118,301.861212015152,302.2239999771118,300.8317940235138,None,300.8317940235138,None,300.8317940235138,None,-1,-1,1,True,595.0825214385986,1155.747413635254,right,304.45783615112305,None,pp_10,icub,clamp,2021_Dec_22_1118,exp,2021.2.3,60.03054265452021,
left,go,0,0,0,0,7,3,45,0,304.9599871635437,None,1,0.647022008895874,304.9599871635437,None,305.6876029968262,None,306.70505714416504,307.0540130138397,306.70505714416504,307.0540130138397,305.6876029968262,None,305.6876029968262,None,305.6876029968262,None,-1,-1,1,True,641.1633491516113,1010.5814933776855,left,309.23770117759705,None,pp_10,icub,clamp,2021_Dec_22_1118,exp,2021.2.3,60.03054265452021,
right,go,0,0,0,0,7,4,46,3,309.74806118011475,None,1,0.5381660461425781,309.74806118011475,None,310.4096829891205,None,311.4032371044159,311.76157808303833,311.4032371044159,311.76157808303833,310.4096829891205,None,310.4096829891205,None,310.4096829891205,None,-1,-1,1,True,489.884614944458,959.0089321136475,right,313.74342608451843,None,pp_10,icub,clamp,2021_Dec_22_1118,exp,2021.2.3,60.03054265452021,
left,go,0,0,0,0,7,5,47,1,314.2469849586487,None,1,0.6325738430023193,314.2469849586487,None,314.973984003067,None,316.0015139579773,316.3474781513214,316.0015139579773,316.3474781513214,314.973984003067,None,314.973984003067,None,314.973984003067,None,-1,-1,1,True,494.89760398864746,912.492036819458,left,318.28503704071045,None,pp_10,icub,clamp,2021_Dec_22_1118,exp,2021.2.3,60.03054265452021,
right,go,0,0,0,0,8,0,48,3,318.79464197158813,None,1,0.539743185043335,318.79464197158813,None,319.4580099582672,None,320.471333026886,320.81987404823303,320.471333026886,320.81987404823303,319.4580099582672,None,319.4580099582672,None,319.4580099582672,None,-1,-1,1,True,519.6642875671387,1012.6557350158691,right,322.89630103111267,None,pp_10,icub,clamp,2021_Dec_22_1118,exp,2021.2.3,60.03054265452021,
left,go,0,0,0,0,8,1,49,1,323.4060661792755,None,1,0.5085790157318115,323.4060661792755,None,324.0082790851593,None,325.0076401233673,325.34542894363403,325.0076401233673,325.34542894363403,324.0082790851593,None,324.0082790851593,None,324.0082790851593,None,-1,-1,1,True,509.73033905029297,949.9092102050781,left,327.3792359828949,None,pp_10,icub,clamp,2021_Dec_22_1118,exp,2021.2.3,60.03054265452021,
right,go,0,0,0,0,8,2,50,4,327.9035050868988,None,1,0.6626191139221191,327.9035050868988,None,328.6894631385803,None,329.6941981315613,330.05192017555237,329.6941981315613,330.05192017555237,328.6894631385803,None,328.6894631385803,None,328.6894631385803,None,-1,-1,1,True,503.99136543273926,1013.1411552429199,right,332.08891797065735,None,pp_10,icub,clamp,2021_Dec_22_1118,exp,2021.2.3,60.03054265452021,
right,stop,0,0,0,0,8,3,51,5,332.6023120880127,None,1,0.495250940322876,332.6023120880127,None,333.20436096191406,None,334.2347161769867,334.5815851688385,334.2347161769867,334.5815851688385,333.20436096191406,None,333.20436096191406,None,333.20436096191406,None,500,450,1,True,499.7525215148926,-1.0,-1,338.6119689941406,None,pp_10,icub,clamp,2021_Dec_22_1118,exp,2021.2.3,60.03054265452021,
right,go,0,0,0,0,8,4,52,3,339.1436810493469,None,1,1.1343131065368652,339.1436810493469,None,340.37473607063293,None,341.3543791770935,341.71535897254944,341.3543791770935,341.71535897254944,340.37473607063293,None,340.37473607063293,None,340.37473607063293,None,-1,-1,1,True,383.4073543548584,800.3287315368652,right,343.4554271697998,None,pp_10,icub,clamp,2021_Dec_22_1118,exp,2021.2.3,60.03054265452021,
left,go,0,0,0,0,8,5,53,0,343.9538221359253,None,1,0.6363639831542969,343.9538221359253,None,344.6754820346832,None,345.6826009750366,346.0307331085205,345.6826009750366,346.0307331085205,344.6754820346832,None,344.6754820346832,None,344.6754820346832,None,-1,-1,1,True,553.0247688293457,834.0425491333008,left,347.962021112442,None,pp_10,icub,clamp,2021_Dec_22_1118,exp,2021.2.3,60.03054265452021,
left,go,0,0,0,0,9,0,54,0,348.4774889945984,None,1,0.6826159954071045,348.4774889945984,None,349.26608514785767,None,350.26202917099,350.606085062027,350.26202917099,350.606085062027,349.26608514785767,None,349.26608514785767,None,349.26608514785767,None,-1,-1,1,True,425.304651260376,990.1018142700195,left,352.58988094329834,None,pp_10,icub,clamp,2021_Dec_22_1118,exp,2021.2.3,60.03054265452021,
left,stop,0,0,0,0,9,1,55,2,353.1086220741272,None,1,0.6663980484008789,353.1086220741272,None,353.89863109588623,None,354.90754795074463,355.26129698753357,354.90754795074463,355.26129698753357,353.89863109588623,None,353.89863109588623,None,353.89863109588623,None,500,500,1,True,381.0396194458008,-1.0,-1,359.1810691356659,None,pp_10,icub,clamp,2021_Dec_22_1118,exp,2021.2.3,60.03054265452021,
right,go,0,0,0,0,9,2,56,4,359.7115111351013,None,1,0.8730409145355225,359.7115111351013,None,360.69374108314514,None,361.66212797164917,362.02017617225647,361.66212797164917,362.02017617225647,360.69374108314514,None,360.69374108314514,None,360.69374108314514,None,-1,-1,1,True,437.955379486084,780.1473140716553,right,363.8108551502228,None,pp_10,icub,clamp,2021_Dec_22_1118,exp,2021.2.3,60.03054265452021,
right,go,0,0,0,0,9,3,57,4,364.31895112991333,None,1,0.7431449890136719,364.31895112991333,None,365.14757204055786,None,366.1599290370941,366.52255415916443,366.1599290370941,366.52255415916443,365.14757204055786,None,365.14757204055786,None,365.14757204055786,None,-1,-1,1,True,447.6916790008545,884.3626976013184,right,368.38684916496277,None,pp_10,icub,clamp,2021_Dec_22_1118,exp,2021.2.3,60.03054265452021,
left,go,0,0,0,0,9,4,58,1,368.89506006240845,None,1,0.7657151222229004,368.89506006240845,None,369.74665999412537,None,370.7691991329193,371.1240961551666,370.7691991329193,371.1240961551666,369.74665999412537,None,369.74665999412537,None,369.74665999412537,None,-1,-1,1,True,379.9326419830322,1190.2635097503662,left,373.20146107673645,None,pp_10,icub,clamp,2021_Dec_22_1118,exp,2021.2.3,60.03054265452021,
left,stop,0,0,0,0,9,5,59,2,373.70813608169556,None,1,1.0749430656433105,373.70813608169556,None,374.8770980834961,None,375.86034202575684,376.2282340526581,375.86034202575684,376.2282340526581,374.8770980834961,None,374.8770980834961,None,374.8770980834961,None,550,500,1,True,630.7611465454102,-1.0,-1,380.3920331001282,None,pp_10,icub,clamp,2021_Dec_22_1118,exp,2021.2.3,60.03054265452021,
left,go,0,0,0,0,10,0,60,1,380.92512917518616,None,1,0.3343350887298584,380.92512917518616,None,381.35213112831116,None,382.3231360912323,382.6749839782715,382.3231360912323,382.6749839782715,381.35213112831116,None,381.35213112831116,None,381.35213112831116,None,-1,-1,1,True,415.844202041626,622.6780414581299,left,384.27206015586853,None,pp_10,icub,clamp,2021_Dec_22_1118,exp,2021.2.3,60.03054265452021,
left,go,0,0,0,0,10,1,61,1,384.80438208580017,None,1,1.0691230297088623,384.80438208580017,None,385.9637191295624,None,386.9801881313324,387.3028049468994,386.9801881313324,387.3028049468994,385.9637191295624,None,385.9637191295624,None,385.9637191295624,None,-1,-1,1,True,449.59402084350586,923.5649108886719,left,389.24330711364746,None,pp_10,icub,clamp,2021_Dec_22_1118,exp,2021.2.3,60.03054265452021,
right,stop,0,0,0,0,10,2,62,5,389.75704312324524,None,1,0.8517498970031738,389.75704312324524,None,390.728168964386,None,391.7335081100464,392.0940079689026,391.7335081100464,392.0940079689026,390.728168964386,None,390.728168964386,None,390.728168964386,None,600,500,1,True,628.8225650787354,-1.0,-1,396.23708510398865,None,pp_10,icub,clamp,2021_Dec_22_1118,exp,2021.2.3,60.03054265452021,
left,go,0,0,0,0,10,3,63,1,396.76815009117126,None,1,0.6102190017700195,396.76815009117126,None,397.50410413742065,None,398.52408814430237,398.8801121711731,398.52408814430237,398.8801121711731,397.50410413742065,None,397.50410413742065,None,397.50410413742065,None,-1,-1,1,True,584.691047668457,740.8244609832764,left,400.69261407852173,None,pp_10,icub,clamp,2021_Dec_22_1118,exp,2021.2.3,60.03054265452021,
left,go,0,0,0,0,10,4,64,0,401.21263003349304,None,1,0.7475450038909912,401.21263003349304,None,402.0662889480591,None,403.0728430747986,403.4174361228943,403.0728430747986,403.4174361228943,402.0662889480591,None,402.0662889480591,None,402.0662889480591,None,-1,-1,1,True,462.5875949859619,925.4546165466309,left,405.32667994499207,None,pp_10,icub,clamp,2021_Dec_22_1118,exp,2021.2.3,60.03054265452021,
left,go,0,0,0,0,10,5,65,1,405.8315360546112,None,1,0.8794770240783691,405.8315360546112,None,406.8110091686249,None,407.8273470401764,408.1682469844818,407.8273470401764,408.1682469844818,406.8110091686249,None,406.8110091686249,None,406.8110091686249,None,-1,-1,1,True,575.6773948669434,771.1303234100342,left,410.047837972641,None,pp_10,icub,clamp,2021_Dec_22_1118,exp,2021.2.3,60.03054265452021,
left,stop,0,0,0,0,11,0,66,2,410.54762601852417,None,1,0.829056978225708,410.54762601852417,None,411.46208596229553,None,412.4593081474304,412.81043100357056,412.4593081474304,412.81043100357056,411.46208596229553,None,411.46208596229553,None,411.46208596229553,None,600,550,1,True,654.3023586273193,-1.0,-1,416.99770998954773,None,pp_10,icub,clamp,2021_Dec_22_1118,exp,2021.2.3,60.03054265452021,
left,stop,0,0,0,0,11,1,67,2,417.5288531780243,None,1,0.7017080783843994,417.5288531780243,None,418.326544046402,None,419.30490708351135,419.66900396347046,419.30490708351135,419.66900396347046,418.326544046402,None,418.326544046402,None,418.326544046402,None,650,550,1,True,512.4044418334961,-1.0,-1,423.705185174942,None,pp_10,icub,clamp,2021_Dec_22_1118,exp,2021.2.3,60.03054265452021,
right,go,0,0,0,0,11,2,68,4,424.2357220649719,None,1,0.8475470542907715,424.2357220649719,None,425.21953296661377,None,426.2463719844818,426.5680890083313,426.2463719844818,426.5680890083313,425.21953296661377,None,425.21953296661377,None,425.21953296661377,None,-1,-1,1,True,467.82851219177246,863.8746738433838,right,428.438668012619,None,pp_10,icub,clamp,2021_Dec_22_1118,exp,2021.2.3,60.03054265452021,
right,stop,0,0,0,0,11,3,69,5,428.94822096824646,None,1,1.1888649463653564,428.94822096824646,None,430.2326600551605,None,431.24688696861267,431.61669516563416,431.24688696861267,431.61669516563416,430.2326600551605,None,430.2326600551605,None,430.2326600551605,None,700,550,1,True,572.9222297668457,-1.0,-1,435.67598700523376,None,pp_10,icub,clamp,2021_Dec_22_1118,exp,2021.2.3,60.03054265452021,
right,stop,0,0,0,0,11,4,70,5,436.20597195625305,None,1,0.6252379417419434,436.20597195625305,None,436.94166898727417,None,437.91937494277954,438.2772259712219,437.91937494277954,438.2772259712219,436.94166898727417,None,436.94166898727417,None,436.94166898727417,None,700,600,0,True,585.0498676300049,688.0724430084229,right,440.08469796180725,None,pp_10,icub,clamp,2021_Dec_22_1118,exp,2021.2.3,60.03054265452021,
left,go,0,0,0,0,11,5,71,0,440.59706115722656,None,1,1.1125869750976562,440.59706115722656,None,441.82080912590027,None,442.83433294296265,443.1847140789032,442.83433294296265,443.1847140789032,441.82080912590027,None,441.82080912590027,None,441.82080912590027,None,-1,-1,1,True,455.54089546203613,1209.7601890563965,left,445.38366198539734,None,pp_10,icub,clamp,2021_Dec_22_1118,exp,2021.2.3,60.03054265452021,
right,go,0,0,0,0,12,0,72,4,445.8979711532593,None,1,0.7162151336669922,445.8979711532593,None,446.68959617614746,None,447.7128541469574,448.0658071041107,447.7128541469574,448.0658071041107,446.68959617614746,None,446.68959617614746,None,446.68959617614746,None,-1,-1,1,True,467.2718048095703,864.7897243499756,right,449.9070589542389,None,pp_10,icub,clamp,2021_Dec_22_1118,exp,2021.2.3,60.03054265452021,
left,stop,0,0,0,0,12,1,73,2,450.4233820438385,None,1,0.8135321140289307,450.4233820438385,None,451.3355829715729,None,452.332524061203,452.686320066452,452.332524061203,452.686320066452,451.3355829715729,None,451.3355829715729,None,451.3355829715729,None,700,550,1,True,519.1013813018799,-1.0,-1,456.7386939525604,None,pp_10,icub,clamp,2021_Dec_22_1118,exp,2021.2.3,60.03054265452021,
left,stop,0,0,0,0,12,2,74,2,457.2698221206665,None,1,1.2982971668243408,457.2698221206665,None,458.68529415130615,None,459.6673581600189,460.03294110298157,459.6673581600189,460.03294110298157,458.68529415130615,None,458.68529415130615,None,458.68529415130615,None,750,550,0,True,488.0406856536865,839.2360210418701,left,461.8977761268616,None,pp_10,icub,clamp,2021_Dec_22_1118,exp,2021.2.3,60.03054265452021,
right,go,0,0,0,0,12,3,75,4,462.4166581630707,None,1,0.8883578777313232,462.4166581630707,None,463.39577317237854,None,464.39140915870667,464.7344169616699,464.39140915870667,464.7344169616699,463.39577317237854,None,463.39577317237854,None,463.39577317237854,None,-1,-1,1,True,610.445499420166,1118.5646057128906,right,466.9980709552765,None,pp_10,icub,clamp,2021_Dec_22_1118,exp,2021.2.3,60.03054265452021,
left,go,0,0,0,0,12,4,76,0,467.50615096092224,None,1,1.5181159973144531,467.50615096092224,None,469.0995981693268,None,470.10804510116577,470.4637370109558,470.10804510116577,470.4637370109558,469.0995981693268,None,469.0995981693268,None,469.0995981693268,None,-1,-1,1,True,605.3223609924316,810.3747367858887,left,472.4021770954132,None,pp_10,icub,clamp,2021_Dec_22_1118,exp,2021.2.3,60.03054265452021,
left,stop,0,0,0,0,12,5,77,2,472.9190580844879,None,1,1.043586015701294,472.9190580844879,None,474.07629799842834,None,475.08281111717224,475.43825602531433,475.08281111717224,475.43825602531433,474.07629799842834,None,474.07629799842834,None,474.07629799842834,None,700,550,1,True,438.7688636779785,-1.0,-1,479.40862917900085,None,pp_10,icub,clamp,2021_Dec_22_1118,exp,2021.2.3,60.03054265452021,
right,go,1,0,1,0,0,0,0,4,500.7836880683899,None,1,8.719168901443481,500.7836880683899,None,509.5983910560608,None,510.61531496047974,510.9601540565491,510.61531496047974,510.9601540565491,509.5983910560608,None,509.5983910560608,None,509.5983910560608,None,-1,-1,1,True,760.263204574585,582.2200775146484,right,512.8286609649658,None,pp_10,icub,clamp,2021_Dec_22_1118,exp,2021.2.3,60.03054265452021,
left,go,1,0,1,0,0,1,1,1,513.3463671207428,None,1,1.7049891948699951,513.3463671207428,None,515.1847741603851,None,516.1803979873657,516.5208010673523,516.1803979873657,516.5208010673523,515.1847741603851,None,515.1847741603851,None,515.1847741603851,None,-1,-1,1,True,693.4475898742676,600.5105972290039,left,518.3894951343536,None,pp_10,icub,clamp,2021_Dec_22_1118,exp,2021.2.3,60.03054265452021,
left,stop,1,0,1,0,0,2,2,2,518.8956899642944,None,1,0.8811359405517578,518.8956899642944,None,519.8724811077118,None,520.8636980056763,521.2181179523468,520.8636980056763,521.2181179523468,519.8724811077118,None,519.8724811077118,None,519.8724811077118,None,750,550,0,True,539.2067432403564,842.4704074859619,left,523.1284830570221,None,pp_10,icub,clamp,2021_Dec_22_1118,exp,2021.2.3,60.03054265452021,
right,go,1,0,1,0,0,3,3,4,523.6350481510162,None,1,0.870380163192749,523.6350481510162,None,524.6117851734161,None,525.618448972702,525.9668049812317,525.618448972702,525.9668049812317,524.6117851734161,None,524.6117851734161,None,524.6117851734161,None,-1,-1,1,True,553.8923740386963,914.3383502960205,right,527.9658961296082,None,pp_10,icub,clamp,2021_Dec_22_1118,exp,2021.2.3,60.03054265452021,
left,go,1,0,1,0,0,4,4,0,528.4798440933228,None,1,0.6676878929138184,528.4798440933228,None,529.2633290290833,None,530.2910990715027,530.6477739810944,530.2910990715027,530.6477739810944,529.2633290290833,None,529.2633290290833,None,529.2633290290833,None,-1,-1,1,True,556.7102432250977,928.5767078399658,left,532.6243929862976,None,pp_10,icub,clamp,2021_Dec_22_1118,exp,2021.2.3,60.03054265452021,
left,go,1,0,1,0,0,5,5,0,533.1597909927368,None,1,0.6889212131500244,533.1597909927368,None,533.9489600658417,None,534.9510200023651,535.3057889938354,534.9510200023651,535.3057889938354,533.9489600658417,None,533.9489600658417,None,533.9489600658417,None,-1,-1,1,True,458.4038257598877,839.9786949157715,left,537.1298770904541,None,pp_10,icub,clamp,2021_Dec_22_1118,exp,2021.2.3,60.03054265452021,
right,stop,1,0,1,0,1,0,6,5,537.6559581756592,None,1,0.5199229717254639,537.6559581756592,None,538.2613160610199,None,539.2576520442963,539.5836520195007,539.2576520442963,539.5836520195007,538.2613160610199,None,538.2613160610199,None,538.2613160610199,None,700,550,1,True,585.8030319213867,-1.0,-1,543.7357859611511,None,pp_10,icub,clamp,2021_Dec_22_1118,exp,2021.2.3,60.03054265452021,
right,go,1,0,1,0,1,1,7,4,544.2667870521545,None,1,0.749075174331665,544.2667870521545,None,545.1277570724487,None,546.1147360801697,546.4622850418091,546.1147360801697,546.4622850418091,545.1277570724487,None,545.1277570724487,None,545.1277570724487,None,-1,-1,1,True,459.37204360961914,871.9401359558105,right,548.3281099796295,None,pp_10,icub,clamp,2021_Dec_22_1118,exp,2021.2.3,60.03054265452021,
left,stop,1,0,1,0,1,2,8,2,548.8544580936432,None,1,0.5493710041046143,548.8544580936432,None,549.5176861286163,None,550.5387749671936,550.8850660324097,550.5387749671936,550.8850660324097,549.5176861286163,None,549.5176861286163,None,549.5176861286163,None,700,600,0,True,545.1111793518066,730.9298515319824,left,552.6808700561523,None,pp_10,icub,clamp,2021_Dec_22_1118,exp,2021.2.3,60.03054265452021,
right,go,1,0,1,0,1,3,9,3,553.1917681694031,None,1,0.7387537956237793,553.1917681694031,None,554.0446619987488,None,555.0607900619507,555.415354013443,555.0607900619507,555.415354013443,554.0446619987488,None,554.0446619987488,None,554.0446619987488,None,-1,-1,1,True,334.06901359558105,947.5677013397217,right,557.2218339443207,None,pp_10,icub,clamp,2021_Dec_22_1118,exp,2021.2.3,60.03054265452021,
right,stop,1,0,1,0,1,4,10,5,557.7285809516907,None,1,0.5758490562438965,557.7285809516907,None,558.3949880599976,None,559.4233560562134,559.7716369628906,559.4233560562134,559.7716369628906,558.3949880599976,None,558.3949880599976,None,558.3949880599976,None,650,600,1,True,451.2913227081299,-1.0,-1,563.7529470920563,None,pp_10,icub,clamp,2021_Dec_22_1118,exp,2021.2.3,60.03054265452021,
right,stop,1,0,1,0,1,5,11,5,564.2579159736633,None,1,0.4276249408721924,564.2579159736633,None,564.7687330245972,None,565.7557621002197,566.077005147934,565.7557621002197,566.077005147934,564.7687330245972,None,564.7687330245972,None,564.7687330245972,None,650,650,1,True,307.6286315917969,-1.0,-1,569.9686181545258,None,pp_10,icub,clamp,2021_Dec_22_1118,exp,2021.2.3,60.03054265452021,
left,go,1,0,1,0,2,0,12,1,570.4813120365143,None,1,0.3901071548461914,570.4813120365143,None,570.9886300563812,None,571.9790539741516,572.3037860393524,571.9790539741516,572.3037860393524,570.9886300563812,None,570.9886300563812,None,570.9886300563812,None,-1,-1,1,True,454.32496070861816,974.1933345794678,left,574.3074381351471,None,pp_10,icub,clamp,2021_Dec_22_1118,exp,2021.2.3,60.03054265452021,
right,go,1,0,1,0,2,1,13,3,574.8206861019135,None,1,0.7182340621948242,574.8206861019135,None,575.6172909736633,None,576.6236860752106,576.9478549957275,576.6236860752106,576.9478549957275,575.6172909736633,None,575.6172909736633,None,575.6172909736633,None,-1,-1,1,True,492.95616149902344,1301.2797832489014,right,579.2918081283569,None,pp_10,icub,clamp,2021_Dec_22_1118,exp,2021.2.3,60.03054265452021,
right,go,1,0,1,0,2,2,14,3,579.8069100379944,None,1,0.5671169757843018,579.8069100379944,None,580.4925420284271,None,581.4861130714417,581.8135311603546,581.4861130714417,581.8135311603546,580.4925420284271,None,580.4925420284271,None,580.4925420284271,None,-1,-1,1,True,557.3265552520752,964.7479057312012,right,583.8909890651703,None,pp_10,icub,clamp,2021_Dec_22_1118,exp,2021.2.3,60.03054265452021,
right,go,1,0,1,0,2,3,15,4,584.4045841693878,None,1,0.7708041667938232,584.4045841693878,None,585.2591199874878,None,586.2570941448212,586.6107790470123,586.2570941448212,586.6107790470123,585.2591199874878,None,585.2591199874878,None,585.2591199874878,None,-1,-1,1,True,550.5895614624023,1255.117654800415,right,588.9703199863434,None,pp_10,icub,clamp,2021_Dec_22_1118,exp,2021.2.3,60.03054265452021,
right,go,1,0,1,0,2,4,16,4,589.4841220378876,None,1,0.4315810203552246,589.4841220378876,None,590.0257270336151,None,591.0225691795349,591.3761880397797,591.0225691795349,591.3761880397797,590.0257270336151,None,590.0257270336151,None,590.0257270336151,None,-1,-1,1,True,373.39019775390625,903.1741619110107,right,593.2009060382843,None,pp_10,icub,clamp,2021_Dec_22_1118,exp,2021.2.3,60.03054265452021,
left,stop,1,0,1,0,2,5,17,2,593.7043960094452,None,1,0.5178508758544922,593.7043960094452,None,594.3135039806366,None,595.3241260051727,595.6867611408234,595.3241260051727,595.6867611408234,594.3135039806366,None,594.3135039806366,None,594.3135039806366,None,650,700,1,True,581.3734531402588,-1.0,-1,599.7701420783997,None,pp_10,icub,clamp,2021_Dec_22_1118,exp,2021.2.3,60.03054265452021,
left,go,1,0,1,0,3,0,18,0,600.3024461269379,None,1,0.47221899032592773,600.3024461269379,None,600.8544180393219,None,601.8671729564667,602.2078940868378,601.8671729564667,602.2078940868378,600.8544180393219,None,600.8544180393219,None,600.8544180393219,None,-1,-1,1,True,371.71268463134766,954.5915126800537,left,604.0668880939484,None,pp_10,icub,clamp,2021_Dec_22_1118,exp,2021.2.3,60.03054265452021,
right,go,1,0,1,0,3,1,19,4,604.5910849571228,None,1,0.6934809684753418,604.5910849571228,None,605.3853089809418,None,606.3867900371552,606.7140979766846,606.3867900371552,606.7140979766846,605.3853089809418,None,605.3853089809418,None,605.3853089809418,None,-1,-1,1,True,882.7812671661377,781.8918228149414,right,608.9524221420288,None,pp_10,icub,clamp,2021_Dec_22_1118,exp,2021.2.3,60.03054265452021,
left,go,1,0,1,0,3,2,20,0,609.464024066925,None,1,0.4005730152130127,609.464024066925,None,609.944000005722,None,610.9607679843903,611.3122410774231,610.9607679843903,611.3122410774231,609.944000005722,None,609.944000005722,None,609.944000005722,None,-1,-1,1,True,848.9809036254883,1188.955545425415,left,613.8719029426575,None,pp_10,icub,clamp,2021_Dec_22_1118,exp,2021.2.3,60.03054265452021,
right,go,1,0,1,0,3,3,21,3,614.3872239589691,None,1,0.6072700023651123,614.3872239589691,None,615.110011100769,None,616.1235749721527,616.4859430789948,616.1235749721527,616.4859430789948,615.110011100769,None,615.110011100769,None,615.110011100769,None,-1,-1,1,True,652.0900726318359,1139.6732330322266,right,618.8087201118469,None,pp_10,icub,clamp,2021_Dec_22_1118,exp,2021.2.3,60.03054265452021,
right,go,1,0,1,0,3,4,22,3,619.3232691287994,None,1,0.44184184074401855,619.3232691287994,None,619.8649950027466,None,620.8796820640564,621.2300930023193,620.8796820640564,621.2300930023193,619.8649950027466,None,619.8649950027466,None,619.8649950027466,None,-1,-1,0,False,509.4726085662842,1006.0379505157471,left,623.2800750732422,None,pp_10,icub,clamp,2021_Dec_22_1118,exp,2021.2.3,60.03054265452021,
right,go,1,0,1,0,3,5,23,4,623.7975251674652,None,1,2.030958890914917,623.7975251674652,None,625.951416015625,None,626.9334781169891,627.2604269981384,626.9334781169891,627.2604269981384,625.951416015625,None,625.951416015625,None,625.951416015625,None,-1,-1,1,True,512.7913951873779,675.0316619873047,right,629.0346381664276,None,pp_10,icub,clamp,2021_Dec_22_1118,exp,2021.2.3,60.03054265452021,
right,go,1,0,1,0,4,0,24,4,629.5471920967102,None,1,0.7004392147064209,629.5471920967102,None,630.3465859889984,None,631.3287529945374,631.6545569896698,631.3287529945374,631.6545569896698,630.3465859889984,None,630.3465859889984,None,630.3465859889984,None,-1,-1,1,True,444.9806213378906,1010.5910301208496,right,633.6961359977722,None,pp_10,icub,clamp,2021_Dec_22_1118,exp,2021.2.3,60.03054265452021,
right,stop,1,0,1,0,4,1,25,5,634.2087769508362,None,1,0.4857769012451172,634.2087769508362,None,634.7753591537476,None,635.8062641620636,636.1675839424133,635.8062641620636,636.1675839424133,634.7753591537476,None,634.7753591537476,None,634.7753591537476,None,700,700,1,True,498.62217903137207,-1.0,-1,640.1521770954132,None,pp_10,icub,clamp,2021_Dec_22_1118,exp,2021.2.3,60.03054265452021,
right,stop,1,0,1,0,4,2,26,5,640.6846899986267,None,1,0.9768249988555908,640.6846899986267,None,641.7901079654694,None,642.7587959766388,643.1116199493408,642.7587959766388,643.1116199493408,641.7901079654694,None,641.7901079654694,None,641.7901079654694,None,700,750,1,True,334.80048179626465,-1.0,-1,647.0092799663544,None,pp_10,icub,clamp,2021_Dec_22_1118,exp,2021.2.3,60.03054265452021,
left,go,1,0,1,0,4,3,27,0,647.5415961742401,None,1,0.642427921295166,647.5415961742401,None,648.2802250385284,None,649.2531781196594,649.6051399707794,649.2531781196594,649.6051399707794,648.2802250385284,None,648.2802250385284,None,648.2802250385284,None,-1,-1,1,True,368.06678771972656,738.4381294250488,left,651.2720890045166,None,pp_10,icub,clamp,2021_Dec_22_1118,exp,2021.2.3,60.03054265452021,
left,stop,1,0,1,0,4,4,28,2,651.7813429832458,None,1,1.1239008903503418,651.7813429832458,None,653.0058219432831,None,654.0178611278534,654.3871450424194,654.0178611278534,654.3871450424194,653.0058219432831,None,653.0058219432831,None,653.0058219432831,None,700,800,1,True,460.1609706878662,-1.0,-1,658.3386449813843,None,pp_10,icub,clamp,2021_Dec_22_1118,exp,2021.2.3,60.03054265452021,
left,stop,1,0,1,0,4,5,29,2,658.8715600967407,None,1,0.6448609828948975,658.8715600967407,None,659.6073360443115,None,660.6173379421234,660.9814319610596,660.6173379421234,660.9814319610596,659.6073360443115,None,659.6073360443115,None,659.6073360443115,None,750,800,1,True,440.37842750549316,-1.0,-1,664.9348771572113,None,pp_10,icub,clamp,2021_Dec_22_1118,exp,2021.2.3,60.03054265452021,
right,stop,1,0,1,0,5,0,30,5,665.4671251773834,None,1,0.6052398681640625,665.4671251773834,None,666.2041850090027,None,667.1843900680542,667.5367641448975,667.1843900680542,667.5367641448975,666.2041850090027,None,666.2041850090027,None,666.2041850090027,None,800,800,0,True,426.18513107299805,875.6191730499268,right,669.4052829742432,None,pp_10,icub,clamp,2021_Dec_22_1118,exp,2021.2.3,60.03054265452021,
right,go,1,0,1,0,5,1,31,4,669.9301810264587,None,1,0.7992968559265137,669.9301810264587,None,670.84321808815,None,671.8472609519958,672.1822061538696,671.8472609519958,672.1822061538696,670.84321808815,None,670.84321808815,None,670.84321808815,None,-1,-1,1,True,570.2786445617676,1108.6978912353516,right,674.4220459461212,None,pp_10,icub,clamp,2021_Dec_22_1118,exp,2021.2.3,60.03054265452021,
right,go,1,0,1,0,5,2,32,3,674.9536299705505,None,1,0.548011064529419,674.9536299705505,None,675.6180219650269,None,676.621945142746,676.9772260189056,676.621945142746,676.9772260189056,675.6180219650269,None,675.6180219650269,None,675.6180219650269,None,-1,-1,1,True,601.0518074035645,1455.6787014007568,right,679.5727820396423,None,pp_10,icub,clamp,2021_Dec_22_1118,exp,2021.2.3,60.03054265452021,
left,go,1,0,1,0,5,3,33,1,680.0731530189514,None,1,0.479032039642334,680.0731530189514,None,680.676488161087,None,681.7019281387329,682.0466940402985,681.7019281387329,682.0466940402985,680.676488161087,None,680.676488161087,None,680.676488161087,None,-1,-1,1,True,426.58042907714844,1318.7730312347412,left,684.3173899650574,None,pp_10,icub,clamp,2021_Dec_22_1118,exp,2021.2.3,60.03054265452021,
left,go,1,0,1,0,5,4,34,0,684.8302931785583,None,1,0.36743998527526855,684.8302931785583,None,685.3072571754456,None,686.3040430545807,686.6256999969482,686.3040430545807,686.6256999969482,685.3072571754456,None,685.3072571754456,None,685.3072571754456,None,-1,-1,1,True,594.9759483337402,1400.0418186187744,left,689.1903531551361,None,pp_10,icub,clamp,2021_Dec_22_1118,exp,2021.2.3,60.03054265452021,
right,go,1,0,1,0,5,5,35,3,689.710193157196,None,1,0.41283202171325684,689.710193157196,None,690.2508671283722,None,691.2523281574249,691.6194031238556,691.2523281574249,691.6194031238556,690.2508671283722,None,690.2508671283722,None,690.2508671283722,None,-1,-1,1,True,597.935676574707,1154.2510986328125,right,693.8884980678558,None,pp_10,icub,clamp,2021_Dec_22_1118,exp,2021.2.3,60.03054265452021,
right,go,1,0,1,0,6,0,36,3,694.3921539783478,None,1,0.4579122066497803,694.3921539783478,None,694.9356830120087,None,695.9574689865112,696.3190951347351,695.9574689865112,696.3190951347351,694.9356830120087,None,694.9356830120087,None,694.9356830120087,None,-1,-1,1,True,551.6037940979004,1290.3642654418945,right,698.6802639961243,None,pp_10,icub,clamp,2021_Dec_22_1118,exp,2021.2.3,60.03054265452021,
right,stop,1,0,1,0,6,1,37,5,699.1971549987793,None,1,0.6425540447235107,699.1971549987793,None,699.9251091480255,None,700.9283590316772,701.2786011695862,700.9283590316772,701.2786011695862,699.9251091480255,None,699.9251091480255,None,699.9251091480255,None,800,750,1,True,496.69742584228516,-1.0,-1,705.3105499744415,None,pp_10,icub,clamp,2021_Dec_22_1118,exp,2021.2.3,60.03054265452021,
left,stop,1,0,1,0,6,2,38,2,705.8427081108093,None,1,0.6914670467376709,705.8427081108093,None,706.6414420604706,None,707.622661113739,707.9822731018066,707.622661113739,707.9822731018066,706.6414420604706,None,706.6414420604706,None,706.6414420604706,None,800,800,0,True,584.5751762390137,896.1086273193359,left,709.9994471073151,None,pp_10,icub,clamp,2021_Dec_22_1118,exp,2021.2.3,60.03054265452021,
right,stop,1,0,1,0,6,3,39,5,710.5011920928955,None,1,0.8485598564147949,710.5011920928955,None,711.4727499485016,None,712.4658689498901,712.8074560165405,712.4658689498901,712.8074560165405,711.4727499485016,None,711.4727499485016,None,711.4727499485016,None,750,800,1,True,622.2734451293945,-1.0,-1,717.0073981285095,None,pp_10,icub,clamp,2021_Dec_22_1118,exp,2021.2.3,60.03054265452021,
right,go,1,0,1,0,6,4,40,4,717.5013389587402,None,1,0.589897871017456,717.5013389587402,None,718.1758420467377,None,719.1617619991302,719.5264301300049,719.1617619991302,719.5264301300049,718.1758420467377,None,718.1758420467377,None,718.1758420467377,None,-1,-1,1,True,475.85034370422363,1409.6097946166992,right,721.9443600177765,None,pp_10,icub,clamp,2021_Dec_22_1118,exp,2021.2.3,60.03054265452021,
left,stop,1,0,1,0,6,5,41,2,722.4738581180573,None,1,0.5130491256713867,722.4738581180573,None,723.0776460170746,None,724.0944299697876,724.4466190338135,724.0944299697876,724.4466190338135,723.0776460170746,None,723.0776460170746,None,723.0776460170746,None,750,850,1,True,388.0443572998047,-1.0,-1,728.3678231239319,None,pp_10,icub,clamp,2021_Dec_22_1118,exp,2021.2.3,60.03054265452021,
left,stop,1,0,1,0,7,0,42,2,728.899099111557,None,1,0.34609508514404297,728.899099111557,None,729.3257739543915,None,730.3134541511536,730.6688711643219,730.3134541511536,730.6688711643219,729.3257739543915,None,729.3257739543915,None,729.3257739543915,None,800,850,1,True,679.6603202819824,-1.0,-1,734.8811140060425,None,pp_10,icub,clamp,2021_Dec_22_1118,exp,2021.2.3,60.03054265452021,
left,go,1,0,1,0,7,1,43,1,735.415491104126,None,1,0.3546888828277588,735.415491104126,None,735.9039621353149,None,736.8941071033478,737.2547869682312,736.8941071033478,737.2547869682312,735.9039621353149,None,735.9039621353149,None,735.9039621353149,None,-1,-1,1,True,416.8524742126465,1090.8710956573486,left,739.2860760688782,None,pp_10,icub,clamp,2021_Dec_22_1118,exp,2021.2.3,60.03054265452021,
left,stop,1,0,1,0,7,2,44,2,739.7960729598999,None,1,0.6634252071380615,739.7960729598999,None,740.5834200382233,None,741.610692024231,741.9575641155243,741.610692024231,741.9575641155243,740.5834200382233,None,740.5834200382233,None,740.5834200382233,None,850,850,0,True,472.8720188140869,992.9232597351074,left,743.9553890228271,None,pp_10,icub,clamp,2021_Dec_22_1118,exp,2021.2.3,60.03054265452021,
left,go,1,0,1,0,7,3,45,1,744.4709720611572,None,1,0.8455700874328613,744.4709720611572,None,745.4364609718323,None,746.4644341468811,746.8203649520874,746.4644341468811,746.8203649520874,745.4364609718323,None,745.4364609718323,None,745.4364609718323,None,-1,-1,1,True,535.2182388305664,1355.5870056152344,left,749.2422471046448,None,pp_10,icub,clamp,2021_Dec_22_1118,exp,2021.2.3,60.03054265452021,
left,go,1,0,1,0,7,4,46,1,749.758887052536,None,1,0.3937211036682129,749.758887052536,None,750.2382659912109,None,751.268443107605,751.6115970611572,751.268443107605,751.6115970611572,750.2382659912109,None,750.2382659912109,None,750.2382659912109,None,-1,-1,1,True,435.44650077819824,1178.5595417022705,left,753.7542681694031,None,pp_10,icub,clamp,2021_Dec_22_1118,exp,2021.2.3,60.03054265452021,
left,stop,1,0,1,0,7,5,47,2,754.2678389549255,None,1,0.5636639595031738,754.2678389549255,None,754.9322130680084,None,755.9574420452118,756.3132481575012,755.9574420452118,756.3132481575012,754.9322130680084,None,754.9322130680084,None,754.9322130680084,None,800,850,1,True,472.8240966796875,-1.0,-1,760.3023481369019,None,pp_10,icub,clamp,2021_Dec_22_1118,exp,2021.2.3,60.03054265452021,
left,go,1,0,1,0,8,0,48,0,760.8349220752716,None,1,0.48507213592529297,760.8349220752716,None,761.4473350048065,None,762.4530739784241,762.8032550811768,762.4530739784241,762.8032550811768,761.4473350048065,None,761.4473350048065,None,761.4473350048065,None,-1,-1,1,True,628.2665729522705,1153.8541316986084,left,765.1096451282501,None,pp_10,icub,clamp,2021_Dec_22_1118,exp,2021.2.3,60.03054265452021,
left,go,1,0,1,0,8,1,49,0,765.6124219894409,None,1,0.4827768802642822,765.6124219894409,None,766.2096431255341,None,767.2343101501465,767.5805251598358,767.2343101501465,767.5805251598358,766.2096431255341,None,766.2096431255341,None,766.2096431255341,None,-1,-1,1,True,725.2633571624756,1100.731372833252,left,769.9123530387878,None,pp_10,icub,clamp,2021_Dec_22_1118,exp,2021.2.3,60.03054265452021,
left,go,1,0,1,0,8,2,50,0,770.4126670360565,None,1,1.5121350288391113,770.4126670360565,None,772.0053839683533,None,773.0304479598999,773.3842070102692,773.0304479598999,773.3842070102692,772.0053839683533,None,772.0053839683533,None,772.0053839683533,None,-1,-1,1,True,945.7035064697266,970.4041481018066,left,775.8234269618988,None,pp_10,icub,clamp,2021_Dec_22_1118,exp,2021.2.3,60.03054265452021,
left,stop,1,0,1,0,8,3,51,2,776.3430111408234,None,1,1.2876818180084229,776.3430111408234,None,777.749997138977,None,778.7441070079803,779.1059739589691,778.7441070079803,779.1059739589691,777.749997138977,None,777.749997138977,None,777.749997138977,None,850,850,0,True,481.9340705871582,786.5750789642334,left,780.9119131565094,None,pp_10,icub,clamp,2021_Dec_22_1118,exp,2021.2.3,60.03054265452021,
left,go,1,0,1,0,8,4,52,0,781.4043500423431,None,1,4.0954368114471436,781.4043500423431,None,785.606183052063,None,786.6078231334686,786.9787220954895,786.6078231334686,786.9787220954895,785.606183052063,None,785.606183052063,None,785.606183052063,None,-1,-1,1,True,471.4939594268799,1069.2484378814697,left,789.0554759502411,None,pp_10,icub,clamp,2021_Dec_22_1118,exp,2021.2.3,60.03054265452021,
right,stop,1,0,1,0,8,5,53,5,789.5726251602173,None,1,0.7649238109588623,789.5726251602173,None,790.4282801151276,None,791.422956943512,791.7818450927734,791.422956943512,791.7818450927734,790.4282801151276,None,790.4282801151276,None,790.4282801151276,None,800,850,1,True,638.0116939544678,-1.0,-1,795.9407670497894,None,pp_10,icub,clamp,2021_Dec_22_1118,exp,2021.2.3,60.03054265452021,
left,go,1,0,1,0,9,0,54,0,796.4717979431152,None,1,0.5001299381256104,796.4717979431152,None,797.0848100185394,None,798.0678560733795,798.4066960811615,798.0678560733795,798.4066960811615,797.0848100185394,None,797.0848100185394,None,797.0848100185394,None,-1,-1,1,True,456.94565773010254,1228.2111644744873,left,800.6682369709015,None,pp_10,icub,clamp,2021_Dec_22_1118,exp,2021.2.3,60.03054265452021,
right,go,1,0,1,0,9,1,55,4,801.2042310237885,None,1,0.6045498847961426,801.2042310237885,None,801.9330360889435,None,802.9274220466614,803.2809820175171,802.9274220466614,803.2809820175171,801.9330360889435,None,801.9330360889435,None,801.9330360889435,None,-1,-1,1,True,498.6302852630615,894.5043087005615,right,805.2082390785217,None,pp_10,icub,clamp,2021_Dec_22_1118,exp,2021.2.3,60.03054265452021,
left,go,1,0,1,0,9,2,56,1,805.7193729877472,None,1,0.8100361824035645,805.7193729877472,None,806.6366760730743,None,807.6616530418396,808.0201201438904,807.6616530418396,808.0201201438904,806.6366760730743,None,806.6366760730743,None,806.6366760730743,None,-1,-1,1,True,462.3584747314453,980.8003902435303,left,809.987988948822,None,pp_10,icub,clamp,2021_Dec_22_1118,exp,2021.2.3,60.03054265452021,
left,go,1,0,1,0,9,3,57,1,810.5070929527283,None,1,0.8882560729980469,810.5070929527283,None,811.4859590530396,None,812.4937901496887,812.8519699573517,812.4937901496887,812.8519699573517,811.4859590530396,None,811.4859590530396,None,811.4859590530396,None,-1,-1,1,True,574.871301651001,1264.7149562835693,left,815.204822063446,None,pp_10,icub,clamp,2021_Dec_22_1118,exp,2021.2.3,60.03054265452021,
left,go,1,0,1,0,9,4,58,1,815.725613117218,None,1,0.7471098899841309,815.725613117218,None,816.5799310207367,None,817.5820741653442,817.9374959468842,817.5820741653442,817.9374959468842,816.5799310207367,None,816.5799310207367,None,816.5799310207367,None,-1,-1,1,True,566.1373138427734,1255.8958530426025,left,820.2942249774933,None,pp_10,icub,clamp,2021_Dec_22_1118,exp,2021.2.3,60.03054265452021,
left,go,1,0,1,0,9,5,59,1,820.8047399520874,None,1,0.6156268119812012,820.8047399520874,None,821.5350890159607,None,822.5358281135559,822.8606450557709,822.5358281135559,822.8606450557709,821.5350890159607,None,821.5350890159607,None,821.5350890159607,None,-1,-1,1,True,553.9805889129639,1062.0005130767822,left,825.044939994812,None,pp_10,icub,clamp,2021_Dec_22_1118,exp,2021.2.3,60.03054265452021,
right,stop,1,0,1,0,10,0,60,5,825.5491600036621,None,1,0.7860779762268066,825.5491600036621,None,826.4637351036072,None,827.457554101944,827.8129601478577,827.457554101944,827.8129601478577,826.4637351036072,None,826.4637351036072,None,826.4637351036072,None,800,900,0,True,432.22546577453613,895.6902027130127,right,829.6781060695648,None,pp_10,icub,clamp,2021_Dec_22_1118,exp,2021.2.3,60.03054265452021,
left,stop,1,0,1,0,10,1,61,2,830.182471036911,None,1,0.6981101036071777,830.182471036911,None,830.9709701538086,None,831.9967081546783,832.365257024765,831.9967081546783,832.365257024765,830.9709701538086,None,830.9709701538086,None,830.9709701538086,None,800,850,1,True,524.4219303131104,-1.0,-1,836.4113969802856,None,pp_10,icub,clamp,2021_Dec_22_1118,exp,2021.2.3,60.03054265452021,
right,stop,1,0,1,0,10,2,62,5,836.9042479991913,None,1,0.5525531768798828,836.9042479991913,None,837.5785520076752,None,838.5700471401215,838.9187660217285,838.5700471401215,838.9187660217285,837.5785520076752,None,837.5785520076752,None,837.5785520076752,None,850,850,1,True,543.0319309234619,-1.0,-1,842.9946730136871,None,pp_10,icub,clamp,2021_Dec_22_1118,exp,2021.2.3,60.03054265452021,
right,go,1,0,1,0,10,3,63,4,843.5263471603394,None,1,0.04240584373474121,843.5263471603394,None,843.705971956253,None,844.6898910999298,845.0421061515808,844.6898910999298,845.0421061515808,843.705971956253,None,843.705971956253,None,843.705971956253,None,-1,-1,1,True,669.41237449646,1008.0010890960693,right,847.2541160583496,None,pp_10,icub,clamp,2021_Dec_22_1118,exp,2021.2.3,60.03054265452021,
right,go,1,0,1,0,10,4,64,3,847.7841279506683,None,1,0.6753120422363281,847.7841279506683,None,848.5750060081482,None,849.6040439605713,849.9713900089264,849.6040439605713,849.9713900089264,848.5750060081482,None,848.5750060081482,None,848.5750060081482,None,-1,-1,1,True,490.8151626586914,1247.8439807891846,right,852.1968941688538,None,pp_10,icub,clamp,2021_Dec_22_1118,exp,2021.2.3,60.03054265452021,
right,stop,1,0,1,0,10,5,65,5,852.717591047287,None,1,0.8179528713226318,852.717591047287,None,853.631108045578,None,854.6457941532135,854.999605178833,854.6457941532135,854.999605178833,853.631108045578,None,853.631108045578,None,853.631108045578,None,850,900,1,True,538.1221771240234,-1.0,-1,859.0595459938049,None,pp_10,icub,clamp,2021_Dec_22_1118,exp,2021.2.3,60.03054265452021,
left,go,1,0,1,0,11,0,66,1,859.5922040939331,None,1,0.9554989337921143,859.5922040939331,None,860.6374311447144,None,861.628014087677,861.9928941726685,861.628014087677,861.9928941726685,860.6374311447144,None,860.6374311447144,None,860.6374311447144,None,-1,-1,1,True,610.2979183197021,1194.0507888793945,left,864.3279180526733,None,pp_10,icub,clamp,2021_Dec_22_1118,exp,2021.2.3,60.03054265452021,
left,go,1,0,1,0,11,1,67,1,864.8545949459076,None,1,0.8912289142608643,864.8545949459076,None,865.8314321041107,None,866.8466041088104,867.1987590789795,866.8466041088104,867.1987590789795,865.8314321041107,None,865.8314321041107,None,865.8314321041107,None,-1,-1,1,True,454.7750949859619,1423.518180847168,left,869.602695941925,None,pp_10,icub,clamp,2021_Dec_22_1118,exp,2021.2.3,60.03054265452021,
right,stop,1,0,1,0,11,2,68,5,870.110433101654,None,1,0.7628369331359863,870.110433101654,None,870.9640719890594,None,871.9828960895538,872.3431689739227,871.9828960895538,872.3431689739227,870.9640719890594,None,870.9640719890594,None,870.9640719890594,None,850,950,0,True,655.5304527282715,964.8919105529785,right,874.4809930324554,None,pp_10,icub,clamp,2021_Dec_22_1118,exp,2021.2.3,60.03054265452021,
right,go,1,0,1,0,11,3,69,4,874.9896509647369,None,1,0.9084579944610596,874.9896509647369,None,876.0205640792847,None,877.0529930591583,877.405454158783,877.0529930591583,877.405454158783,876.0205640792847,None,876.0205640792847,None,876.0205640792847,None,-1,-1,1,True,437.3588562011719,1497.610330581665,right,879.8557600975037,None,pp_10,icub,clamp,2021_Dec_22_1118,exp,2021.2.3,60.03054265452021,
right,go,1,0,1,0,11,4,70,3,880.3733110427856,None,1,0.6752378940582275,880.3733110427856,None,881.1548681259155,None,882.1626720428467,882.5132839679718,882.1626720428467,882.5132839679718,881.1548681259155,None,881.1548681259155,None,881.1548681259155,None,-1,-1,1,True,473.88386726379395,1427.9735088348389,right,884.9279420375824,None,pp_10,icub,clamp,2021_Dec_22_1118,exp,2021.2.3,60.03054265452021,
left,go,1,0,1,0,11,5,71,0,885.4333441257477,None,1,0.43871402740478516,885.4333441257477,None,885.9785990715027,None,886.9719109535217,887.3090779781342,886.9719109535217,887.3090779781342,885.9785990715027,None,885.9785990715027,None,885.9785990715027,None,-1,-1,1,True,550.6711006164551,1079.939365386963,left,889.4810321331024,None,pp_10,icub,clamp,2021_Dec_22_1118,exp,2021.2.3,60.03054265452021,
left,go,1,0,1,0,12,0,72,0,889.9945499897003,None,1,0.6959738731384277,889.9945499897003,None,890.782665014267,None,891.7884609699249,892.1521501541138,891.7884609699249,892.1521501541138,890.782665014267,None,890.782665014267,None,890.782665014267,None,-1,-1,1,True,475.97599029541016,1064.8939609527588,left,894.2260429859161,None,pp_10,icub,clamp,2021_Dec_22_1118,exp,2021.2.3,60.03054265452021,
left,go,1,0,1,0,12,1,73,1,894.7426209449768,None,1,0.6449458599090576,894.7426209449768,None,895.468456029892,None,896.4841079711914,896.8383481502533,896.4841079711914,896.8383481502533,895.468456029892,None,895.468456029892,None,895.468456029892,None,-1,-1,1,True,517.4281597137451,1327.3799419403076,left,899.2038190364838,None,pp_10,icub,clamp,2021_Dec_22_1118,exp,2021.2.3,60.03054265452021,
left,stop,1,0,1,0,12,2,74,2,899.7023129463196,None,1,0.652256965637207,899.7023129463196,None,900.4872210025787,None,901.502494096756,901.849956035614,901.502494096756,901.849956035614,900.4872210025787,None,900.4872210025787,None,900.4872210025787,None,850,900,1,True,498.7659454345703,-1.0,-1,905.8693211078644,None,pp_10,icub,clamp,2021_Dec_22_1118,exp,2021.2.3,60.03054265452021,
right,go,1,0,1,0,12,3,75,3,906.4016189575195,None,1,0.7579829692840576,906.4016189575195,None,907.2604670524597,None,908.2470099925995,908.5803830623627,908.2470099925995,908.5803830623627,907.2604670524597,None,907.2604670524597,None,907.2604670524597,None,-1,-1,1,True,490.7853603363037,1173.3767986297607,right,910.8160519599915,None,pp_10,icub,clamp,2021_Dec_22_1118,exp,2021.2.3,60.03054265452021,
right,go,1,0,1,0,12,4,76,3,911.3361029624939,None,1,0.5469489097595215,911.3361029624939,None,911.9966840744019,None,912.9961149692535,913.357213973999,912.9961149692535,913.357213973999,911.9966840744019,None,911.9966840744019,None,911.9966840744019,None,-1,-1,1,True,503.2789707183838,1222.4595546722412,right,915.5955729484558,None,pp_10,icub,clamp,2021_Dec_22_1118,exp,2021.2.3,60.03054265452021,
right,go,1,0,1,0,12,5,77,3,916.1066219806671,None,1,0.6097531318664551,916.1066219806671,None,916.8352539539337,None,917.8244950771332,918.1702971458435,917.8244950771332,918.1702971458435,916.8352539539337,None,916.8352539539337,None,916.8352539539337,None,-1,-1,1,True,647.7835178375244,1241.2772178649902,right,920.6256210803986,None,pp_10,icub,clamp,2021_Dec_22_1118,exp,2021.2.3,60.03054265452021,
right,go,2,0,2,0,0,0,0,4,933.3959670066833,None,1,10.390085935592651,933.3959670066833,None,943.8614809513092,None,944.8736820220947,945.231635093689,944.8736820220947,945.231635093689,943.8614809513092,None,943.8614809513092,None,943.8614809513092,None,-1,-1,1,True,533.5111618041992,487.34235763549805,right,946.7880539894104,None,pp_10,icub,clamp,2021_Dec_22_1118,exp,2021.2.3,60.03054265452021,
right,go,2,0,2,0,0,1,1,3,947.3035600185394,None,1,0.7784671783447266,947.3035600185394,None,948.1626281738281,None,949.1764559745789,949.533262014389,949.1764559745789,949.533262014389,948.1626281738281,None,948.1626281738281,None,948.1626281738281,None,-1,-1,1,True,421.46754264831543,483.72960090637207,right,950.9498691558838,None,pp_10,icub,clamp,2021_Dec_22_1118,exp,2021.2.3,60.03054265452021,
right,go,2,0,2,0,0,2,2,3,951.473904132843,None,1,0.6880569458007812,951.473904132843,None,952.263335943222,None,953.269739151001,953.6244521141052,953.269739151001,953.6244521141052,952.263335943222,None,952.263335943222,None,952.263335943222,None,-1,-1,1,True,368.0717945098877,592.7228927612305,right,955.1237161159515,None,pp_10,icub,clamp,2021_Dec_22_1118,exp,2021.2.3,60.03054265452021,
left,go,2,0,2,0,0,3,3,1,955.6424980163574,None,1,0.4894118309020996,955.6424980163574,None,956.2479150295258,None,957.2623600959778,957.6077370643616,957.2623600959778,957.6077370643616,956.2479150295258,None,956.2479150295258,None,956.2479150295258,None,-1,-1,1,True,465.18611907958984,727.09059715271,left,959.332396030426,None,pp_10,icub,clamp,2021_Dec_22_1118,exp,2021.2.3,60.03054265452021,
left,go,2,0,2,0,0,4,4,1,959.8330690860748,None,1,0.39520812034606934,959.8330690860748,None,960.3140931129456,None,961.336816072464,961.6735620498657,961.336816072464,961.6735620498657,960.3140931129456,None,960.3140931129456,None,960.3140931129456,None,-1,-1,1,True,393.27287673950195,925.7948398590088,left,963.505471944809,None,pp_10,icub,clamp,2021_Dec_22_1118,exp,2021.2.3,60.03054265452021,
right,stop,2,0,2,0,0,5,5,5,964.0389521121979,None,1,0.3849978446960449,964.0389521121979,None,964.5246169567108,None,965.5463891029358,965.8868491649628,965.5463891029358,965.8868491649628,964.5246169567108,None,964.5246169567108,None,964.5246169567108,None,900,900,0,True,495.08047103881836,845.5770015716553,right,967.7546679973602,None,pp_10,icub,clamp,2021_Dec_22_1118,exp,2021.2.3,60.03054265452021,
right,go,2,0,2,0,1,0,6,4,968.2697651386261,None,1,0.7632551193237305,968.2697651386261,None,969.1084191799164,None,970.1330180168152,970.484946012497,970.1330180168152,970.484946012497,969.1084191799164,None,969.1084191799164,None,969.1084191799164,None,-1,-1,1,True,408.0634117126465,1171.5164184570312,right,972.5805730819702,None,pp_10,icub,clamp,2021_Dec_22_1118,exp,2021.2.3,60.03054265452021,
left,go,2,0,2,0,1,1,7,0,973.0935790538788,None,1,0.3151590824127197,973.0935790538788,None,973.5129590034485,None,974.5151121616364,974.8668310642242,974.5151121616364,974.8668310642242,973.5129590034485,None,973.5129590034485,None,973.5129590034485,None,-1,-1,1,True,550.3709316253662,1073.9641189575195,left,977.0465409755707,None,pp_10,icub,clamp,2021_Dec_22_1118,exp,2021.2.3,60.03054265452021,
right,go,2,0,2,0,1,2,8,4,977.558559179306,None,1,0.3975839614868164,977.558559179306,None,978.0415661334991,None,979.050332069397,979.4094240665436,979.050332069397,979.4094240665436,978.0415661334991,None,978.0415661334991,None,978.0415661334991,None,-1,-1,1,True,539.8416519165039,865.8339977264404,right,981.3376049995422,None,pp_10,icub,clamp,2021_Dec_22_1118,exp,2021.2.3,60.03054265452021,
left,go,2,0,2,0,1,3,9,0,981.8443779945374,None,1,0.44185614585876465,981.8443779945374,None,982.3856539726257,None,983.4163069725037,983.7751009464264,983.4163069725037,983.7751009464264,982.3856539726257,None,982.3856539726257,None,982.3856539726257,None,-1,-1,1,True,576.4238834381104,1065.2289390563965,left,985.9364249706268,None,pp_10,icub,clamp,2021_Dec_22_1118,exp,2021.2.3,60.03054265452021,
right,go,2,0,2,0,1,4,10,4,986.4508180618286,None,1,0.44749903678894043,986.4508180618286,None,986.9936039447784,None,988.0064151287079,988.3549649715424,988.0064151287079,988.3549649715424,986.9936039447784,None,986.9936039447784,None,986.9936039447784,None,-1,-1,1,True,490.7565116882324,896.3501453399658,right,990.2614431381226,None,pp_10,icub,clamp,2021_Dec_22_1118,exp,2021.2.3,60.03054265452021,
right,go,2,0,2,0,1,5,11,4,990.774337053299,None,1,0.43546605110168457,990.774337053299,None,991.3179659843445,None,992.336578130722,992.6886160373688,992.336578130722,992.6886160373688,991.3179659843445,None,991.3179659843445,None,991.3179659843445,None,-1,-1,1,True,669.438362121582,1140.7477855682373,right,995.029454946518,None,pp_10,icub,clamp,2021_Dec_22_1118,exp,2021.2.3,60.03054265452021,
right,go,2,0,2,0,2,0,12,3,995.5415961742401,None,1,0.354172945022583,995.5415961742401,None,996.0196490287781,None,997.0306091308594,997.3957350254059,997.0306091308594,997.3957350254059,996.0196490287781,None,996.0196490287781,None,996.0196490287781,None,-1,-1,1,True,696.1612701416016,932.0070743560791,right,999.5476520061493,None,pp_10,icub,clamp,2021_Dec_22_1118,exp,2021.2.3,60.03054265452021,
right,go,2,0,2,0,2,1,13,4,1000.058501958847,None,1,0.30832791328430176,1000.058501958847,None,1000.4773371219635,None,1001.4787840843201,1001.825001001358,1001.4787840843201,1001.825001001358,1000.4773371219635,None,1000.4773371219635,None,1000.4773371219635,None,-1,-1,1,True,516.5886878967285,771.6684341430664,right,1003.67316198349,None,pp_10,icub,clamp,2021_Dec_22_1118,exp,2021.2.3,60.03054265452021,
left,stop,2,0,2,0,2,2,14,2,1004.187716960907,None,1,0.4177398681640625,1004.187716960907,None,1004.7282609939575,None,1005.7493331432343,1006.101086139679,1005.7493331432343,1006.101086139679,1004.7282609939575,None,1004.7282609939575,None,1004.7282609939575,None,900,850,0,True,458.8351249694824,744.2338466644287,left,1007.8232860565186,None,pp_10,icub,clamp,2021_Dec_22_1118,exp,2021.2.3,60.03054265452021,
right,stop,2,0,2,0,2,3,15,5,1008.3435499668121,None,1,0.6483330726623535,1008.3435499668121,None,1009.0722630023956,None,1010.0894069671631,1010.4434340000153,1010.0894069671631,1010.4434340000153,1009.0722630023956,None,1009.0722630023956,None,1009.0722630023956,None,850,850,0,True,492.647647857666,787.6036167144775,right,1012.2543840408325,None,pp_10,icub,clamp,2021_Dec_22_1118,exp,2021.2.3,60.03054265452021,
left,go,2,0,2,0,2,4,16,0,1012.7594909667969,None,1,0.4911048412322998,1012.7594909667969,None,1013.3638911247253,None,1014.3966071605682,1014.7470569610596,1014.3966071605682,1014.7470569610596,1013.3638911247253,None,1013.3638911247253,None,1013.3638911247253,None,-1,-1,1,True,515.1519775390625,1069.86665725708,left,1016.8234460353851,None,pp_10,icub,clamp,2021_Dec_22_1118,exp,2021.2.3,60.03054265452021,
left,go,2,0,2,0,2,5,17,0,1017.3352420330048,None,1,0.4361701011657715,1017.3352420330048,None,1017.8780710697174,None,1018.8723909854889,1019.2251241207123,1018.8723909854889,1019.2251241207123,1017.8780710697174,None,1017.8780710697174,None,1017.8780710697174,None,-1,-1,1,True,402.73332595825195,948.2746124267578,left,1021.1096529960632,None,pp_10,icub,clamp,2021_Dec_22_1118,exp,2021.2.3,60.03054265452021,
right,go,2,0,2,0,3,0,18,3,1021.635272026062,None,1,0.4494960308074951,1021.635272026062,None,1022.1802260875702,None,1023.1862070560455,1023.5367660522461,1023.1862070560455,1023.5367660522461,1022.1802260875702,None,1022.1802260875702,None,1022.1802260875702,None,-1,-1,1,True,398.5323905944824,1200.1900672912598,right,1025.656422138214,None,pp_10,icub,clamp,2021_Dec_22_1118,exp,2021.2.3,60.03054265452021,
right,stop,2,0,2,0,3,1,19,5,1026.1788120269775,None,1,0.33327794075012207,1026.1788120269775,None,1026.5976259708405,None,1027.5991051197052,1027.9562470912933,1027.5991051197052,1027.9562470912933,1026.5976259708405,None,1026.5976259708405,None,1026.5976259708405,None,850,800,1,True,412.7013683319092,-1.0,-1,1031.8872101306915,None,pp_10,icub,clamp,2021_Dec_22_1118,exp,2021.2.3,60.03054265452021,
left,go,2,0,2,0,3,2,20,0,1032.4206049442291,None,1,1.8444008827209473,1032.4206049442291,None,1034.3949229717255,None,1035.4174120426178,1035.7848320007324,1035.4174120426178,1035.7848320007324,1034.3949229717255,None,1034.3949229717255,None,1034.3949229717255,None,,,0,False,-1.0,-1.0,-1,1036.2154669761658,None,pp_10,icub,clamp,2021_Dec_22_1118,exp,2021.2.3,60.03054265452021,
right,stop,2,0,2,0,3,3,21,5,1036.7440509796143,None,1,1.228813886642456,1036.7440509796143,None,1038.0975601673126,None,1039.0849361419678,1039.4336071014404,1039.0849361419678,1039.4336071014404,1038.0975601673126,None,1038.0975601673126,None,1038.0975601673126,None,850,850,0,True,444.75293159484863,825.4728317260742,right,1041.2307879924774,None,pp_10,icub,clamp,2021_Dec_22_1118,exp,2021.2.3,60.03054265452021,
left,go,2,0,2,0,3,4,22,0,1041.749176979065,None,1,0.5695710182189941,1041.749176979065,None,1042.414500951767,None,1043.4406249523163,1043.7680020332336,1043.4406249523163,1043.7680020332336,1042.414500951767,None,1042.414500951767,None,1042.414500951767,None,-1,-1,1,True,481.08959197998047,1174.2932796478271,left,1045.9483439922333,None,pp_10,icub,clamp,2021_Dec_22_1118,exp,2021.2.3,60.03054265452021,
left,go,2,0,2,0,3,5,23,1,1046.4757289886475,None,1,0.5848820209503174,1046.4757289886475,None,1047.141186952591,None,1048.1551389694214,1048.514757156372,1048.1551389694214,1048.514757156372,1047.141186952591,None,1047.141186952591,None,1047.141186952591,None,-1,-1,1,True,478.806734085083,990.6070232391357,left,1050.5050640106201,None,pp_10,icub,clamp,2021_Dec_22_1118,exp,2021.2.3,60.03054265452021,
left,go,2,0,2,0,4,0,24,1,1051.0336091518402,None,1,0.5751938819885254,1051.0336091518402,None,1051.698009967804,None,1052.701157093048,1053.050392150879,1052.701157093048,1053.050392150879,1051.698009967804,None,1051.698009967804,None,1051.698009967804,None,-1,-1,1,True,518.5225009918213,1098.0167388916016,left,1055.1984820365906,None,pp_10,icub,clamp,2021_Dec_22_1118,exp,2021.2.3,60.03054265452021,
left,go,2,0,2,0,4,1,25,1,1055.7345221042633,None,1,0.48011112213134766,1055.7345221042633,None,1056.3382821083069,None,1057.362643957138,1057.6859979629517,1057.362643957138,1057.6859979629517,1056.3382821083069,None,1056.3382821083069,None,1056.3382821083069,None,-1,-1,1,True,692.6577091217041,1019.5422172546387,left,1059.9540569782257,None,pp_10,icub,clamp,2021_Dec_22_1118,exp,2021.2.3,60.03054265452021,
left,stop,2,0,2,0,4,2,26,2,1060.454703092575,None,1,0.5269699096679688,1060.454703092575,None,1061.0620591640472,None,1062.0613009929657,1062.403018951416,1062.0613009929657,1062.403018951416,1061.0620591640472,None,1061.0620591640472,None,1061.0620591640472,None,850,800,1,True,498.1870651245117,-1.0,-1,1066.4659790992737,None,pp_10,icub,clamp,2021_Dec_22_1118,exp,2021.2.3,60.03054265452021,
left,go,2,0,2,0,4,3,27,1,1067.0000140666962,None,1,2.969839096069336,1067.0000140666962,None,1070.0887219905853,None,1071.0706100463867,1071.416820049286,1071.0706100463867,1071.416820049286,1070.0887219905853,None,1070.0887219905853,None,1070.0887219905853,None,-1,-1,1,True,431.2105178833008,909.3515872955322,left,1073.3263130187988,None,pp_10,icub,clamp,2021_Dec_22_1118,exp,2021.2.3,60.03054265452021,
left,go,2,0,2,0,4,4,28,0,1073.8326749801636,None,1,0.6879780292510986,1073.8326749801636,None,1074.621505022049,None,1075.655014038086,1076.0034489631653,1075.655014038086,1076.0034489631653,1074.621505022049,None,1074.621505022049,None,1074.621505022049,None,-1,-1,1,True,521.8045711517334,1193.3214664459229,left,1078.2398250102997,None,pp_10,icub,clamp,2021_Dec_22_1118,exp,2021.2.3,60.03054265452021,
right,go,2,0,2,0,4,5,29,4,1078.7506041526794,None,1,0.4036438465118408,1078.7506041526794,None,1079.2346811294556,None,1080.2267141342163,1080.563038110733,1080.2267141342163,1080.563038110733,1079.2346811294556,None,1079.2346811294556,None,1079.2346811294556,None,-1,-1,1,True,566.6184425354004,975.4481315612793,right,1082.682016134262,None,pp_10,icub,clamp,2021_Dec_22_1118,exp,2021.2.3,60.03054265452021,
left,go,2,0,2,0,5,0,30,1,1083.1970839500427,None,1,0.3372640609741211,1083.1970839500427,None,1083.6147360801697,None,1084.6126110553741,1084.9623041152954,1084.6126110553741,1084.9623041152954,1083.6147360801697,None,1083.6147360801697,None,1083.6147360801697,None,-1,-1,1,True,552.1893501281738,1151.4253616333008,left,1087.2000851631165,None,pp_10,icub,clamp,2021_Dec_22_1118,exp,2021.2.3,60.03054265452021,
left,go,2,0,2,0,5,1,31,0,1087.7104890346527,None,1,0.35629987716674805,1087.7104890346527,None,1088.1905009746552,None,1089.2239999771118,1089.5638110637665,1089.2239999771118,1089.5638110637665,1088.1905009746552,None,1088.1905009746552,None,1088.1905009746552,None,-1,-1,1,True,452.10909843444824,1341.550588607788,left,1091.8858830928802,None,pp_10,icub,clamp,2021_Dec_22_1118,exp,2021.2.3,60.03054265452021,
right,stop,2,0,2,0,5,2,32,5,1092.4201500415802,None,1,0.4162909984588623,1092.4201500415802,None,1092.9601509571075,None,1093.9635651111603,1094.3235709667206,1093.9635651111603,1094.3235709667206,1092.9601509571075,None,1092.9601509571075,None,1092.9601509571075,None,900,800,1,True,482.452392578125,-1.0,-1,1098.3315160274506,None,pp_10,icub,clamp,2021_Dec_22_1118,exp,2021.2.3,60.03054265452021,
left,go,2,0,2,0,5,3,33,0,1098.8627400398254,None,1,1.0419509410858154,1098.8627400398254,None,1100.0327010154724,None,1101.0599720478058,1101.4184131622314,1101.0599720478058,1101.4184131622314,1100.0327010154724,None,1100.0327010154724,None,1100.0327010154724,None,-1,-1,1,True,657.1376323699951,873.2795715332031,left,1103.4400930404663,None,pp_10,icub,clamp,2021_Dec_22_1118,exp,2021.2.3,60.03054265452021,
left,go,2,0,2,0,5,4,34,0,1103.945386171341,None,1,0.6178228855133057,1103.945386171341,None,1104.6778841018677,None,1105.6815659999847,1106.0416810512543,1105.6815659999847,1106.0416810512543,1104.6778841018677,None,1104.6778841018677,None,1104.6778841018677,None,-1,-1,1,True,462.0640277862549,1160.8054637908936,left,1108.1969771385193,None,pp_10,icub,clamp,2021_Dec_22_1118,exp,2021.2.3,60.03054265452021,
left,go,2,0,2,0,5,5,35,1,1108.6969351768494,None,1,0.49423789978027344,1108.6969351768494,None,1109.300549030304,None,1110.323860168457,1110.6818399429321,1110.323860168457,1110.6818399429321,1109.300549030304,None,1109.300549030304,None,1109.300549030304,None,-1,-1,1,True,523.8006114959717,1077.545404434204,left,1112.8078401088715,None,pp_10,icub,clamp,2021_Dec_22_1118,exp,2021.2.3,60.03054265452021,
left,stop,2,0,2,0,6,0,36,2,1113.3257191181183,None,1,0.7418360710144043,1113.3257191181183,None,1114.1763780117035,None,1115.1815390586853,1115.506052017212,1115.1815390586853,1115.506052017212,1114.1763780117035,None,1114.1763780117035,None,1114.1763780117035,None,900,850,1,True,529.7911167144775,-1.0,-1,1119.5851910114288,None,pp_10,icub,clamp,2021_Dec_22_1118,exp,2021.2.3,60.03054265452021,
right,go,2,0,2,0,6,1,37,3,1120.118280172348,None,1,0.6083669662475586,1120.118280172348,None,1120.8546130657196,None,1121.8287229537964,1122.1718590259552,1121.8287229537964,1122.1718590259552,1120.8546130657196,None,1120.8546130657196,None,1120.8546130657196,None,-1,-1,1,True,483.46590995788574,1151.3190269470215,right,1124.3545401096344,None,pp_10,icub,clamp,2021_Dec_22_1118,exp,2021.2.3,60.03054265452021,
left,stop,2,0,2,0,6,2,38,2,1124.8693480491638,None,1,0.7341289520263672,1124.8693480491638,None,1125.7194330692291,None,1126.7253170013428,1127.0931479930878,1126.7253170013428,1127.0931479930878,1125.7194330692291,None,1125.7194330692291,None,1125.7194330692291,None,950,850,1,True,570.0705051422119,-1.0,-1,1131.1946711540222,None,pp_10,icub,clamp,2021_Dec_22_1118,exp,2021.2.3,60.03054265452021,
left,stop,2,0,2,0,6,3,39,2,1131.726802110672,None,1,0.6768569946289062,1131.726802110672,None,1132.527801990509,None,1133.5114631652832,1133.8336579799652,1133.5114631652832,1133.8336579799652,1132.527801990509,None,1132.527801990509,None,1132.527801990509,None,1000,850,1,True,538.4373664855957,-1.0,-1,1137.9340920448303,None,pp_10,icub,clamp,2021_Dec_22_1118,exp,2021.2.3,60.03054265452021,
left,go,2,0,2,0,6,4,40,0,1138.4680421352386,None,1,0.5344979763031006,1138.4680421352386,None,1139.1428780555725,None,1140.1310861110687,1140.4885940551758,1140.1310861110687,1140.4885940551758,1139.1428780555725,None,1139.1428780555725,None,1139.1428780555725,None,-1,-1,1,True,667.994499206543,1114.1541004180908,left,1142.805279970169,None,pp_10,icub,clamp,2021_Dec_22_1118,exp,2021.2.3,60.03054265452021,
right,go,2,0,2,0,6,5,41,3,1143.3122260570526,None,1,0.722027063369751,1143.3122260570526,None,1144.1619410514832,None,1145.1627089977264,1145.503175020218,1145.1627089977264,1145.503175020218,1144.1619410514832,None,1144.1619410514832,None,1144.1619410514832,None,-1,-1,1,True,615.2570247650146,963.5183811187744,right,1147.6425030231476,None,pp_10,icub,clamp,2021_Dec_22_1118,exp,2021.2.3,60.03054265452021,
left,stop,2,0,2,0,7,0,42,2,1148.1632261276245,None,1,0.5537071228027344,1148.1632261276245,None,1148.8282220363617,None,1149.845950126648,1150.2012569904327,1149.845950126648,1150.2012569904327,1148.8282220363617,None,1148.8282220363617,None,1148.8282220363617,None,1050,850,1,True,663.7101173400879,-1.0,-1,1154.375815153122,None,pp_10,icub,clamp,2021_Dec_22_1118,exp,2021.2.3,60.03054265452021,
left,stop,2,0,2,0,7,1,43,2,1154.9092409610748,None,1,0.555243968963623,1154.9092409610748,None,1155.584813117981,None,1156.608952999115,1156.966737985611,1156.608952999115,1156.966737985611,1155.584813117981,None,1155.584813117981,None,1155.584813117981,None,1100,850,0,True,539.4783020019531,954.2427062988281,left,1158.9508731365204,None,pp_10,icub,clamp,2021_Dec_22_1118,exp,2021.2.3,60.03054265452021,
right,go,2,0,2,0,7,2,44,3,1159.4794130325317,None,1,0.5594890117645264,1159.4794130325317,None,1160.145574092865,None,1161.139356136322,1161.5011401176453,1161.139356136322,1161.5011401176453,1160.145574092865,None,1160.145574092865,None,1160.145574092865,None,-1,-1,1,True,490.63658714294434,1119.7125911712646,right,1163.6375811100006,None,pp_10,icub,clamp,2021_Dec_22_1118,exp,2021.2.3,60.03054265452021,
right,go,2,0,2,0,7,3,45,3,1164.1324970722198,None,1,0.3988678455352783,1164.1324970722198,None,1164.6117191314697,None,1165.6175220012665,1165.946105003357,1165.6175220012665,1165.946105003357,1164.6117191314697,None,1164.6117191314697,None,1164.6117191314697,None,-1,-1,1,True,508.65697860717773,1200.221061706543,right,1168.2319600582123,None,pp_10,icub,clamp,2021_Dec_22_1118,exp,2021.2.3,60.03054265452021,
left,go,2,0,2,0,7,4,46,1,1168.7431161403656,None,1,0.6028778553009033,1168.7431161403656,None,1169.469120979309,None,1170.4868609905243,1170.8315241336823,1170.4868609905243,1170.8315241336823,1169.469120979309,None,1169.469120979309,None,1169.469120979309,None,-1,-1,1,True,529.7434329986572,1293.9815521240234,left,1173.1863820552826,None,pp_10,icub,clamp,2021_Dec_22_1118,exp,2021.2.3,60.03054265452021,
left,stop,2,0,2,0,7,5,47,2,1173.6870820522308,None,1,0.7034320831298828,1173.6870820522308,None,1174.4813799858093,None,1175.48593211174,1175.828936100006,1175.48593211174,1175.828936100006,1174.4813799858093,None,1174.4813799858093,None,1174.4813799858093,None,1050,850,0,True,464.71238136291504,1418.1170463562012,left,1178.2456550598145,None,pp_10,icub,clamp,2021_Dec_22_1118,exp,2021.2.3,60.03054265452021,
left,go,2,0,2,0,8,0,48,0,1178.7647190093994,None,1,1.3463780879974365,1178.7647190093994,None,1180.2359499931335,None,1181.2430460453033,1181.6147100925446,1181.2430460453033,1181.6147100925446,1180.2359499931335,None,1180.2359499931335,None,1180.2359499931335,None,-1,-1,1,True,434.8480701446533,1240.565299987793,left,1183.8240189552307,None,pp_10,icub,clamp,2021_Dec_22_1118,exp,2021.2.3,60.03054265452021,
right,go,2,0,2,0,8,1,49,3,1184.3536779880524,None,1,0.9192187786102295,1184.3536779880524,None,1185.3874011039734,None,1186.387612104416,1186.7317719459534,1186.387612104416,1186.7317719459534,1185.3874011039734,None,1185.3874011039734,None,1185.3874011039734,None,-1,-1,1,True,411.30995750427246,1203.6993503570557,right,1188.895336151123,None,pp_10,icub,clamp,2021_Dec_22_1118,exp,2021.2.3,60.03054265452021,
left,stop,2,0,2,0,8,2,50,2,1189.4122340679169,None,1,0.48655200004577637,1189.4122340679169,None,1190.018648147583,None,1191.0498321056366,1191.4011101722717,1191.0498321056366,1191.4011101722717,1190.018648147583,None,1190.018648147583,None,1190.018648147583,None,1000,850,0,True,417.7703857421875,1199.0668773651123,left,1193.5462019443512,None,pp_10,icub,clamp,2021_Dec_22_1118,exp,2021.2.3,60.03054265452021,
left,go,2,0,2,0,8,3,51,1,1194.0667870044708,None,1,0.9938290119171143,1194.0667870044708,None,1195.1632521152496,None,1196.1678190231323,1196.5196011066437,1196.1678190231323,1196.5196011066437,1195.1632521152496,None,1195.1632521152496,None,1195.1632521152496,None,-1,-1,1,True,363.1296157836914,1083.2459926605225,left,1198.496747970581,None,pp_10,icub,clamp,2021_Dec_22_1118,exp,2021.2.3,60.03054265452021,
right,stop,2,0,2,0,8,4,52,5,1198.9972989559174,None,1,0.4980142116546631,1198.9972989559174,None,1199.6013741493225,None,1200.6348910331726,1200.9879579544067,1200.6348910331726,1200.9879579544067,1199.6013741493225,None,1199.6013741493225,None,1199.6013741493225,None,950,850,0,True,416.46862030029297,901.3972282409668,right,1202.8213741779327,None,pp_10,icub,clamp,2021_Dec_22_1118,exp,2021.2.3,60.03054265452021,
right,go,2,0,2,0,8,5,53,4,1203.3335151672363,None,1,0.6558310985565186,1203.3335151672363,None,1204.0801939964294,None,1205.1119630336761,1205.4642679691315,1205.1119630336761,1205.4642679691315,1204.0801939964294,None,1204.0801939964294,None,1204.0801939964294,None,-1,-1,1,True,352.7987003326416,1246.3011741638184,right,1207.5547881126404,None,pp_10,icub,clamp,2021_Dec_22_1118,exp,2021.2.3,60.03054265452021,
right,go,2,0,2,0,9,0,54,4,1208.0611040592194,None,1,0.38090085983276367,1208.0611040592194,None,1208.5420019626617,None,1209.5454921722412,1209.9081320762634,1209.5454921722412,1209.9081320762634,1208.5420019626617,None,1208.5420019626617,None,1208.5420019626617,None,-1,-1,1,True,379.34303283691406,1118.1955337524414,right,1211.93834400177,None,pp_10,icub,clamp,2021_Dec_22_1118,exp,2021.2.3,60.03054265452021,
right,stop,2,0,2,0,9,1,55,5,1212.4514560699463,None,1,0.40938496589660645,1212.4514560699463,None,1212.988634109497,None,1213.9843490123749,1214.338585138321,1213.9843490123749,1214.338585138321,1212.988634109497,None,1212.988634109497,None,1212.988634109497,None,950,800,1,True,519.8779106140137,-1.0,-1,1218.417818069458,None,pp_10,icub,clamp,2021_Dec_22_1118,exp,2021.2.3,60.03054265452021,
right,go,2,0,2,0,9,2,56,4,1218.9498751163483,None,1,0.6043260097503662,1218.9498751163483,None,1219.686231136322,None,1220.6726341247559,1221.0303721427917,1220.6726341247559,1221.0303721427917,1219.686231136322,None,1219.686231136322,None,1219.686231136322,None,-1,-1,1,True,387.8629207611084,1064.4712448120117,right,1223.0140521526337,None,pp_10,icub,clamp,2021_Dec_22_1118,exp,2021.2.3,60.03054265452021,
right,go,2,0,2,0,9,3,57,3,1223.548977136612,None,1,0.43070101737976074,1223.548977136612,None,1224.0896310806274,None,1225.1010110378265,1225.4248449802399,1225.1010110378265,1225.4248449802399,1224.0896310806274,None,1224.0896310806274,None,1224.0896310806274,None,-1,-1,1,True,436.9349479675293,1044.456958770752,right,1227.4625899791718,None,pp_10,icub,clamp,2021_Dec_22_1118,exp,2021.2.3,60.03054265452021,
left,stop,2,0,2,0,9,4,58,2,1227.9995040893555,None,1,0.4578561782836914,1227.9995040893555,None,1228.5426540374756,None,1229.5618469715118,1229.929083108902,1229.5618469715118,1229.929083108902,1228.5426540374756,None,1228.5426540374756,None,1228.5426540374756,None,950,850,1,True,495.7458972930908,-1.0,-1,1233.9104580879211,None,pp_10,icub,clamp,2021_Dec_22_1118,exp,2021.2.3,60.03054265452021,
left,stop,2,0,2,0,9,5,59,2,1234.443510055542,None,1,0.7596931457519531,1234.443510055542,None,1235.3033270835876,None,1236.3148601055145,1236.6719760894775,1236.3148601055145,1236.6719760894775,1235.3033270835876,None,1235.3033270835876,None,1235.3033270835876,None,1000,850,0,True,607.553243637085,1161.0898971557617,left,1238.979238986969,None,pp_10,icub,clamp,2021_Dec_22_1118,exp,2021.2.3,60.03054265452021,
left,go,2,0,2,0,10,0,60,1,1239.5007569789886,None,1,0.7458229064941406,1239.5007569789886,None,1240.3532359600067,None,1241.3614339828491,1241.7182459831238,1241.3614339828491,1241.7182459831238,1240.3532359600067,None,1240.3532359600067,None,1240.3532359600067,None,-1,-1,1,True,641.287088394165,1387.5539302825928,left,1244.2675580978394,None,pp_10,icub,clamp,2021_Dec_22_1118,exp,2021.2.3,60.03054265452021,
right,go,2,0,2,0,10,1,61,3,1244.767441034317,None,1,0.44939589500427246,1244.767441034317,None,1245.312348127365,None,1246.3084831237793,1246.6687190532684,1246.3084831237793,1246.6687190532684,1245.312348127365,None,1245.312348127365,None,1245.312348127365,None,-1,-1,1,True,657.9186916351318,1095.5822467803955,right,1248.948235988617,None,pp_10,icub,clamp,2021_Dec_22_1118,exp,2021.2.3,60.03054265452021,
left,stop,2,0,2,0,10,2,62,2,1249.4620020389557,None,1,0.3986818790435791,1249.4620020389557,None,1249.9414041042328,None,1250.9483540058136,1251.2957260608673,1250.9483540058136,1251.2957260608673,1249.9414041042328,None,1249.9414041042328,None,1249.9414041042328,None,950,850,1,True,773.4959125518799,-1.0,-1,1255.5987401008606,None,pp_10,icub,clamp,2021_Dec_22_1118,exp,2021.2.3,60.03054265452021,
right,stop,2,0,2,0,10,3,63,5,1256.132024049759,None,1,0.5060150623321533,1256.132024049759,None,1256.7443361282349,None,1257.7334289550781,1258.0891251564026,1257.7334289550781,1258.0891251564026,1256.7443361282349,None,1256.7443361282349,None,1256.7443361282349,None,1000,850,1,True,456.3577175140381,-1.0,-1,1262.0722601413727,None,pp_10,icub,clamp,2021_Dec_22_1118,exp,2021.2.3,60.03054265452021,
right,stop,2,0,2,0,10,4,64,5,1262.6052751541138,None,1,0.24173593521118164,1262.6052751541138,None,1262.9702999591827,None,1263.9569330215454,1264.313796043396,1263.9569330215454,1264.313796043396,1262.9702999591827,None,1262.9702999591827,None,1262.9702999591827,None,1000,900,1,True,502.2289752960205,-1.0,-1,1268.350625038147,None,pp_10,icub,clamp,2021_Dec_22_1118,exp,2021.2.3,60.03054265452021,
left,stop,2,0,2,0,10,5,65,2,1268.8825521469116,None,1,0.4314420223236084,1268.8825521469116,None,1269.433315038681,None,1270.4638860225677,1270.8184931278229,1270.4638860225677,1270.8184931278229,1269.433315038681,None,1269.433315038681,None,1269.433315038681,None,1000,950,1,True,422.1453666687012,-1.0,-1,1274.7303121089935,None,pp_10,icub,clamp,2021_Dec_22_1118,exp,2021.2.3,60.03054265452021,
left,go,2,0,2,0,11,0,66,1,1275.2625329494476,None,1,0.7134590148925781,1275.2625329494476,None,1276.059890985489,None,1277.0458781719208,1277.408779144287,1277.0458781719208,1277.408779144287,1276.059890985489,None,1276.059890985489,None,1276.059890985489,None,-1,-1,1,True,617.1867847442627,1236.0212802886963,left,1279.7964091300964,None,pp_10,icub,clamp,2021_Dec_22_1118,exp,2021.2.3,60.03054265452021,
right,stop,2,0,2,0,11,1,67,5,1280.2979500293732,None,1,0.8346958160400391,1280.2979500293732,None,1281.2132601737976,None,1282.2113461494446,1282.5710279941559,1282.2113461494446,1282.5710279941559,1281.2132601737976,None,1281.2132601737976,None,1281.2132601737976,None,1050,950,0,True,458.8887691497803,1064.1560554504395,right,1284.6286211013794,None,pp_10,icub,clamp,2021_Dec_22_1118,exp,2021.2.3,60.03054265452021,
right,stop,2,0,2,0,11,2,68,5,1285.1442601680756,None,1,0.6191480159759521,1285.1442601680756,None,1285.8705170154572,None,1286.8715481758118,1287.2301189899445,1286.8715481758118,1287.2301189899445,1285.8705170154572,None,1285.8705170154572,None,1285.8705170154572,None,1050,900,1,True,361.8440628051758,-1.0,-1,1291.1281480789185,None,pp_10,icub,clamp,2021_Dec_22_1118,exp,2021.2.3,60.03054265452021,
right,go,2,0,2,0,11,3,69,4,1291.6224219799042,None,1,0.5694999694824219,1291.6224219799042,None,1292.2975840568542,None,1293.2771961688995,1293.6278500556946,1293.2771961688995,1293.6278500556946,1292.2975840568542,None,1292.2975840568542,None,1292.2975840568542,None,-1,-1,1,True,638.0290985107422,1168.2462692260742,right,1296.0015211105347,None,pp_10,icub,clamp,2021_Dec_22_1118,exp,2021.2.3,60.03054265452021,
right,go,2,0,2,0,11,4,70,3,1296.5185179710388,None,1,0.5350468158721924,1296.5185179710388,None,1297.180969953537,None,1298.1791770458221,1298.53173494339,1298.1791770458221,1298.53173494339,1297.180969953537,None,1297.180969953537,None,1297.180969953537,None,-1,-1,1,True,486.08994483947754,1306.6933155059814,right,1300.87491106987,None,pp_10,icub,clamp,2021_Dec_22_1118,exp,2021.2.3,60.03054265452021,
right,go,2,0,2,0,11,5,71,4,1301.39732503891,None,1,0.4640500545501709,1301.39732503891,None,1301.9420249462128,None,1302.9355449676514,1303.2915091514587,1302.9355449676514,1303.2915091514587,1301.9420249462128,None,1301.9420249462128,None,1301.9420249462128,None,-1,-1,1,True,329.1473388671875,1249.1350173950195,right,1305.3922970294952,None,pp_10,icub,clamp,2021_Dec_22_1118,exp,2021.2.3,60.03054265452021,
left,go,2,0,2,0,12,0,72,1,1305.9033460617065,None,1,0.4169468879699707,1305.9033460617065,None,1306.436448097229,None,1307.4598960876465,1307.809751033783,1307.4598960876465,1307.809751033783,1306.436448097229,None,1306.436448097229,None,1306.436448097229,None,-1,-1,1,True,452.27766036987305,1251.5015602111816,left,1310.0326490402222,None,pp_10,icub,clamp,2021_Dec_22_1118,exp,2021.2.3,60.03054265452021,
left,go,2,0,2,0,12,1,73,0,1310.5402581691742,None,1,0.3610799312591553,1310.5402581691742,None,1311.0195951461792,None,1312.0224590301514,1312.378396987915,1312.0224590301514,1312.378396987915,1311.0195951461792,None,1311.0195951461792,None,1311.0195951461792,None,-1,-1,1,True,415.91548919677734,788.8333797454834,left,1314.1026911735535,None,pp_10,icub,clamp,2021_Dec_22_1118,exp,2021.2.3,60.03054265452021,
right,go,2,0,2,0,12,2,74,4,1314.607027053833,None,1,0.446444034576416,1314.607027053833,None,1315.148561000824,None,1316.1612429618835,1316.5218801498413,1316.1612429618835,1316.5218801498413,1315.148561000824,None,1315.148561000824,None,1315.148561000824,None,-1,-1,1,True,466.59255027770996,953.7973403930664,right,1318.4502029418945,None,pp_10,icub,clamp,2021_Dec_22_1118,exp,2021.2.3,60.03054265452021,
right,stop,2,0,2,0,12,3,75,5,1318.974867105484,None,1,0.38170909881591797,1318.974867105484,None,1319.4570889472961,None,1320.4703841209412,1320.8177299499512,1320.4703841209412,1320.8177299499512,1319.4570889472961,None,1319.4570889472961,None,1319.4570889472961,None,1050,950,1,True,421.1866855621338,-1.0,-1,1324.7696161270142,None,pp_10,icub,clamp,2021_Dec_22_1118,exp,2021.2.3,60.03054265452021,
right,go,2,0,2,0,12,4,76,3,1325.3029119968414,None,1,0.40592002868652344,1325.3029119968414,None,1325.7906651496887,None,1326.772539138794,1327.1292731761932,1326.772539138794,1327.1292731761932,1325.7906651496887,None,1325.7906651496887,None,1325.7906651496887,None,-1,-1,1,True,488.27338218688965,1043.6863899230957,right,1329.1872961521149,None,pp_10,icub,clamp,2021_Dec_22_1118,exp,2021.2.3,60.03054265452021,
right,stop,2,0,2,0,12,5,77,5,1329.6899321079254,None,1,0.4407968521118164,1329.6899321079254,None,1330.2313210964203,None,1331.2451260089874,1331.587942123413,1331.2451260089874,1331.587942123413,1330.2313210964203,None,1330.2313210964203,None,1330.2313210964203,None,1050,1000,0,True,583.8534832000732,824.0630626678467,right,1333.528825044632,None,pp_10,icub,clamp,2021_Dec_22_1118,exp,2021.2.3,60.03054265452021,
right,go,3,0,3,0,0,0,0,3,1344.5830690860748,None,1,10.050814151763916,1344.5830690860748,None,1354.7341129779816,None,None,None,None,None,1354.7341129779816,None,1354.7341129779816,None,1354.7341129779816,None,,,0,False,-1.0,-1.0,-1,1354.9030690193176,None,pp_10,icub,clamp,2021_Dec_22_1118,exp,2021.2.3,60.03054265452021,
right,go,3,0,3,0,0,1,1,4,1355.43585896492,None,1,1.017848014831543,1355.43585896492,None,1356.5441870689392,None,1357.5232031345367,1357.8777570724487,1357.5232031345367,1357.8777570724487,1356.5441870689392,None,1356.5441870689392,None,1356.5441870689392,None,-1,-1,1,True,617.1238422393799,680.2716255187988,right,1359.733234167099,None,pp_10,icub,clamp,2021_Dec_22_1118,exp,2021.2.3,60.03054265452021,
left,stop,3,0,3,0,0,2,2,2,1360.2432889938354,None,1,0.5917651653289795,1360.2432889938354,None,1360.9681680202484,None,1361.9690670967102,1362.297611951828,1361.9690670967102,1362.297611951828,1360.9681680202484,None,1360.9681680202484,None,1360.9681680202484,None,1050,950,0,True,352.19526290893555,838.132381439209,left,1364.0386929512024,None,pp_10,icub,clamp,2021_Dec_22_1118,exp,2021.2.3,60.03054265452021,
right,go,3,0,3,0,0,3,3,4,1364.552493095398,None,1,0.5241360664367676,1364.552493095398,None,1365.1571581363678,None,1366.1612560749054,1366.5119099617004,1366.1612560749054,1366.5119099617004,1365.1571581363678,None,1365.1571581363678,None,1365.1571581363678,None,-1,-1,1,True,283.275842666626,528.8381576538086,right,1367.8565089702606,None,pp_10,icub,clamp,2021_Dec_22_1118,exp,2021.2.3,60.03054265452021,
right,go,3,0,3,0,0,4,4,3,1368.3706500530243,None,1,0.44974517822265625,1368.3706500530243,None,1368.9160001277924,None,1369.925831079483,1370.2755300998688,1369.925831079483,1370.2755300998688,1368.9160001277924,None,1368.9160001277924,None,1368.9160001277924,None,-1,-1,1,True,448.37379455566406,785.7487201690674,right,1372.0391960144043,None,pp_10,icub,clamp,2021_Dec_22_1118,exp,2021.2.3,60.03054265452021,
right,stop,3,0,3,0,0,5,5,5,1372.5650370121002,None,1,0.35419321060180664,1372.5650370121002,None,1373.0428149700165,None,1374.067419052124,1374.4349291324615,1374.067419052124,1374.4349291324615,1373.0428149700165,None,1373.0428149700165,None,1373.0428149700165,None,1000,950,0,True,384.9778175354004,1037.524700164795,right,1376.355812072754,None,pp_10,icub,clamp,2021_Dec_22_1118,exp,2021.2.3,60.03054265452021,
right,go,3,0,3,0,1,0,6,3,1376.8543400764465,None,1,0.45842599868774414,1376.8543400764465,None,1377.3950910568237,None,1378.405037164688,1378.7595081329346,1378.405037164688,1378.7595081329346,1377.3950910568237,None,1377.3950910568237,None,1377.3950910568237,None,-1,-1,1,True,318.35174560546875,1025.8665084838867,right,1380.6346821784973,None,pp_10,icub,clamp,2021_Dec_22_1118,exp,2021.2.3,60.03054265452021,
left,go,3,0,3,0,1,1,7,1,1381.1312229633331,None,1,0.4007999897003174,1381.1312229633331,None,1381.612300157547,None,1382.601567029953,1382.967365026474,1382.601567029953,1382.967365026474,1381.612300157547,None,1381.612300157547,None,1381.612300157547,None,-1,-1,1,True,462.56208419799805,1061.8329048156738,left,1385.0187020301819,None,pp_10,icub,clamp,2021_Dec_22_1118,exp,2021.2.3,60.03054265452021,
left,stop,3,0,3,0,1,2,8,2,1385.5323150157928,None,1,0.3851602077484131,1385.5323150157928,None,1386.0115411281586,None,1387.04590010643,1387.404396057129,1387.04590010643,1387.404396057129,1386.0115411281586,None,1386.0115411281586,None,1386.0115411281586,None,1000,900,0,True,487.17260360717773,1121.7927932739258,left,1389.506991147995,None,pp_10,icub,clamp,2021_Dec_22_1118,exp,2021.2.3,60.03054265452021,
left,go,3,0,3,0,1,3,9,1,1390.0172851085663,None,1,0.5509130954742432,1390.0172851085663,None,1390.684345960617,None,1391.6946330070496,1392.04048204422,1391.6946330070496,1392.04048204422,1390.684345960617,None,1390.684345960617,None,1390.684345960617,None,-1,-1,1,True,372.4703788757324,1160.7427597045898,left,1394.1054451465607,None,pp_10,icub,clamp,2021_Dec_22_1118,exp,2021.2.3,60.03054265452021,
left,go,3,0,3,0,1,4,10,0,1394.6137640476227,None,1,0.3949391841888428,1394.6137640476227,None,1395.0945491790771,None,1396.089478969574,1396.4464859962463,1396.089478969574,1396.4464859962463,1395.0945491790771,None,1395.0945491790771,None,1395.0945491790771,None,-1,-1,1,True,493.74890327453613,1176.1929988861084,left,1398.6417610645294,None,pp_10,icub,clamp,2021_Dec_22_1118,exp,2021.2.3,60.03054265452021,
right,go,3,0,3,0,1,5,11,4,1399.1421840190887,None,1,0.4399569034576416,1399.1421840190887,None,1399.6884801387787,None,1400.7161560058594,1401.083853006363,1400.7161560058594,1401.083853006363,1399.6884801387787,None,1399.6884801387787,None,1399.6884801387787,None,-1,-1,1,True,389.8279666900635,1068.5622692108154,right,1403.0309751033783,None,pp_10,icub,clamp,2021_Dec_22_1118,exp,2021.2.3,60.03054265452021,
