Holder,Action,blocks.thisRepN,blocks.thisTrialN,blocks.thisN,blocks.thisIndex,trials.thisRepN,trials.thisTrialN,trials.thisN,trials.thisIndex,start_msg.started,start_msg.stopped,RespButton_start_trial.keys,RespButton_start_trial.rt,RespButton_start_trial.started,RespButton_start_trial.stopped,GREEN.started,GREEN.stopped,LEFT_RED.started,LEFT_RED.stopped,RIGHT_RED.started,RIGHT_RED.stopped,LEFT_CIRCLE.started,LEFT_CIRCLE.stopped,CENTER_CIRCLE.started,CENTER_CIRCLE.stopped,RIGHT_CIRCLE.started,RIGHT_CIRCLE.stopped,CORRECT,VALIDITY,RELEASE_TIME,TOUCH_TIME,BOTTLE_RESPONSE_POSITION,text.started,text.stopped,SOUND_DELAY_MS_LEFT,SOUND_DELAY_MS_RIGHT,pid,left_position,right_position,date,expName,psychopyVersion,frameRate,
right,stop,0,0,0,0,0,0,0,5,53.688482999801636,None,1,15.821596145629883,53.688482999801636,None,69.62159705162048,None,None,None,None,None,69.62159705162048,None,69.62159705162048,None,69.62159705162048,None,0,False,-1.0,-1.0,-1,69.85832595825195,None,,,pp_15,icub,clamp,2021_Dec_23_1430,exp,2021.2.3,59.86269970627443,
left,go,0,0,0,0,0,1,1,0,70.38896083831787,None,1,0.7178289890289307,70.38896083831787,None,71.24682402610779,None,72.23270297050476,72.57713890075684,72.23270297050476,72.57713890075684,71.24682402610779,None,71.24682402610779,None,71.24682402610779,None,1,True,429.98743057250977,953.6285400390625,left,74.535080909729,None,-1,-1,pp_15,icub,clamp,2021_Dec_23_1430,exp,2021.2.3,59.86269970627443,
right,stop,0,0,0,0,0,2,2,5,75.054358959198,None,1,0.8415989875793457,75.054358959198,None,75.97126007080078,None,76.96266603469849,77.33205795288086,76.96266603469849,77.33205795288086,75.97126007080078,None,75.97126007080078,None,75.97126007080078,None,1,True,451.6274929046631,-1.0,-1,81.31081795692444,None,500,500,pp_15,icub,clamp,2021_Dec_23_1430,exp,2021.2.3,59.86269970627443,
left,go,0,0,0,0,0,3,3,0,81.84272885322571,None,1,0.35607004165649414,81.84272885322571,None,82.33164191246033,None,83.29979085922241,83.64926195144653,83.29979085922241,83.64926195144653,82.33164191246033,None,82.33164191246033,None,82.33164191246033,None,1,True,406.79144859313965,909.8520278930664,left,85.52843594551086,None,-1,-1,pp_15,icub,clamp,2021_Dec_23_1430,exp,2021.2.3,59.86269970627443,
right,go,0,0,0,0,0,4,4,4,86.02879786491394,None,1,0.889085054397583,86.02879786491394,None,87.00341296195984,None,88.00629806518555,88.34870600700378,88.00629806518555,88.34870600700378,87.00341296195984,None,87.00341296195984,None,87.00341296195984,None,1,True,325.59752464294434,730.3922176361084,right,89.92983484268188,None,-1,-1,pp_15,icub,clamp,2021_Dec_23_1430,exp,2021.2.3,59.86269970627443,
left,go,0,0,0,0,0,5,5,1,90.43348789215088,None,1,0.759800910949707,90.43348789215088,None,91.28746294975281,None,92.29354000091553,92.64087891578674,92.29354000091553,92.64087891578674,91.28746294975281,None,91.28746294975281,None,91.28746294975281,None,1,True,483.51573944091797,724.0204811096191,left,94.37832188606262,None,-1,-1,pp_15,icub,clamp,2021_Dec_23_1430,exp,2021.2.3,59.86269970627443,
right,go,0,0,0,0,1,0,6,3,94.89863586425781,None,1,0.8726789951324463,94.89863586425781,None,95.86730790138245,None,96.87641596794128,97.23444104194641,96.87641596794128,97.23444104194641,95.86730790138245,None,95.86730790138245,None,95.86730790138245,None,1,True,517.4365043640137,795.0155735015869,right,99.07076287269592,None,-1,-1,pp_15,icub,clamp,2021_Dec_23_1430,exp,2021.2.3,59.86269970627443,
right,go,0,0,0,0,1,1,7,3,99.57621192932129,None,1,0.697098970413208,99.57621192932129,None,100.35385799407959,None,101.37591505050659,101.71633005142212,101.37591505050659,101.71633005142212,100.35385799407959,None,100.35385799407959,None,100.35385799407959,None,1,True,381.3960552215576,828.1104564666748,right,103.44866299629211,None,-1,-1,pp_15,icub,clamp,2021_Dec_23_1430,exp,2021.2.3,59.86269970627443,
right,go,0,0,0,0,1,2,8,3,103.96539688110352,None,1,0.765571117401123,103.96539688110352,None,104.81665396690369,None,105.84665703773499,106.19381403923035,105.84665703773499,106.19381403923035,104.81665396690369,None,104.81665396690369,None,104.81665396690369,None,1,True,564.3587112426758,653.8667678833008,right,107.94347190856934,None,-1,-1,pp_15,icub,clamp,2021_Dec_23_1430,exp,2021.2.3,59.86269970627443,
right,go,0,0,0,0,1,3,9,4,108.4622209072113,None,1,0.6092529296875,108.4622209072113,None,109.19040989875793,None,110.19220089912415,110.51629400253296,110.19220089912415,110.51629400253296,109.19040989875793,None,109.19040989875793,None,109.19040989875793,None,0,False,-1.0,-1.0,-1,111.08475303649902,None,,,pp_15,icub,clamp,2021_Dec_23_1430,exp,2021.2.3,59.86269970627443,
left,go,0,0,0,0,1,4,10,1,111.578125,None,1,1.0140080451965332,111.578125,None,112.68614387512207,None,113.65888500213623,114.01130986213684,113.65888500213623,114.01130986213684,112.68614387512207,None,112.68614387512207,None,112.68614387512207,None,1,True,619.7831630706787,609.5457077026367,left,115.81810092926025,None,-1,-1,pp_15,icub,clamp,2021_Dec_23_1430,exp,2021.2.3,59.86269970627443,
left,go,0,0,0,0,1,5,11,0,116.3283760547638,None,1,1.018953800201416,116.3283760547638,None,117.42661094665527,None,118.42493605613708,118.75253987312317,118.42493605613708,118.75253987312317,117.42661094665527,None,117.42661094665527,None,117.42661094665527,None,1,True,545.8114147186279,725.2695560455322,left,120.59298396110535,None,-1,-1,pp_15,icub,clamp,2021_Dec_23_1430,exp,2021.2.3,59.86269970627443,
right,go,0,0,0,0,2,0,12,3,121.10350799560547,None,1,0.6739590167999268,121.10350799560547,None,121.89157295227051,None,122.91023898124695,123.26047992706299,122.91023898124695,123.26047992706299,121.89157295227051,None,121.89157295227051,None,121.89157295227051,None,1,True,263.08465003967285,725.6367206573486,right,124.77788305282593,None,-1,-1,pp_15,icub,clamp,2021_Dec_23_1430,exp,2021.2.3,59.86269970627443,
right,stop,0,0,0,0,2,1,13,5,125.31437492370605,None,1,0.6088190078735352,125.31437492370605,None,126.04350304603577,None,127.04373097419739,127.39741492271423,127.04373097419739,127.39741492271423,126.04350304603577,None,126.04350304603577,None,126.04350304603577,None,0,True,346.4541435241699,699.6293067932129,right,128.97969794273376,None,500,550,pp_15,icub,clamp,2021_Dec_23_1430,exp,2021.2.3,59.86269970627443,
left,go,0,0,0,0,2,2,14,0,129.49319005012512,None,1,0.7020230293273926,129.49319005012512,None,130.28102207183838,None,131.27801895141602,131.63669896125793,131.27801895141602,131.63669896125793,130.28102207183838,None,130.28102207183838,None,130.28102207183838,None,1,True,330.9817314147949,726.6011238098145,left,133.22440004348755,None,-1,-1,pp_15,icub,clamp,2021_Dec_23_1430,exp,2021.2.3,59.86269970627443,
left,go,0,0,0,0,2,3,15,0,133.73549604415894,None,1,0.7590010166168213,133.73549604415894,None,134.5885488986969,None,135.5835359096527,135.93138694763184,135.5835359096527,135.93138694763184,134.5885488986969,None,134.5885488986969,None,134.5885488986969,None,1,True,279.510498046875,680.7360649108887,left,137.43886804580688,None,-1,-1,pp_15,icub,clamp,2021_Dec_23_1430,exp,2021.2.3,59.86269970627443,
right,go,0,0,0,0,2,4,16,3,137.9385929107666,None,1,0.9209709167480469,137.9385929107666,None,138.9751319885254,None,140.0013189315796,140.36564302444458,140.0013189315796,140.36564302444458,138.9751319885254,None,138.9751319885254,None,138.9751319885254,None,1,True,255.98692893981934,574.5499134063721,right,141.7117199897766,None,-1,-1,pp_15,icub,clamp,2021_Dec_23_1430,exp,2021.2.3,59.86269970627443,
left,stop,0,0,0,0,2,5,17,2,142.22466206550598,None,1,0.6649839878082275,142.22466206550598,None,143.0133409500122,None,144.03690385818481,144.38534498214722,144.03690385818481,144.38534498214722,143.0133409500122,None,143.0133409500122,None,143.0133409500122,None,1,True,327.82530784606934,-1.0,-1,148.21269297599792,None,500,500,pp_15,icub,clamp,2021_Dec_23_1430,exp,2021.2.3,59.86269970627443,
right,go,0,0,0,0,3,0,18,4,148.74344897270203,None,1,0.299591064453125,148.74344897270203,None,149.1700029373169,None,150.14582896232605,150.4969289302826,150.14582896232605,150.4969289302826,149.1700029373169,None,149.1700029373169,None,149.1700029373169,None,1,True,326.01118087768555,735.1672649383545,right,152.1288628578186,None,-1,-1,pp_15,icub,clamp,2021_Dec_23_1430,exp,2021.2.3,59.86269970627443,
right,stop,0,0,0,0,3,1,19,5,152.64284491539001,None,1,0.6434497833251953,152.64284491539001,None,153.3718478679657,None,154.36511993408203,154.68733501434326,154.36511993408203,154.68733501434326,153.3718478679657,None,153.3718478679657,None,153.3718478679657,None,1,True,474.6592044830322,-1.0,-1,158.7289788722992,None,550,500,pp_15,icub,clamp,2021_Dec_23_1430,exp,2021.2.3,59.86269970627443,
right,go,0,0,0,0,3,2,20,3,159.25921487808228,None,1,0.316957950592041,159.25921487808228,None,159.68448185920715,None,160.6832559108734,161.03796792030334,160.6832559108734,161.03796792030334,159.68448185920715,None,159.68448185920715,None,159.68448185920715,None,1,True,231.28604888916016,772.1993923187256,right,162.5704300403595,None,-1,-1,pp_15,icub,clamp,2021_Dec_23_1430,exp,2021.2.3,59.86269970627443,
right,go,0,0,0,0,3,3,21,3,163.08975791931152,None,1,0.6809768676757812,163.08975791931152,None,163.88000392913818,None,164.88933491706848,165.24152493476868,164.88933491706848,165.24152493476868,163.88000392913818,None,163.88000392913818,None,163.88000392913818,None,1,True,475.5876064300537,739.281177520752,right,166.98826098442078,None,-1,-1,pp_15,icub,clamp,2021_Dec_23_1430,exp,2021.2.3,59.86269970627443,
left,go,0,0,0,0,3,4,22,1,167.51326084136963,None,1,0.5574419498443604,167.51326084136963,None,168.17699694633484,None,169.20296788215637,169.56185483932495,169.20296788215637,169.56185483932495,168.17699694633484,None,168.17699694633484,None,168.17699694633484,None,1,True,344.56539154052734,726.0639667510986,left,171.14992904663086,None,-1,-1,pp_15,icub,clamp,2021_Dec_23_1430,exp,2021.2.3,59.86269970627443,
left,go,0,0,0,0,3,5,23,1,171.66343903541565,None,1,0.8733091354370117,171.66343903541565,None,172.63735604286194,None,173.63863396644592,173.9762580394745,173.63863396644592,173.9762580394745,172.63735604286194,None,172.63735604286194,None,172.63735604286194,None,1,True,553.309440612793,708.7249755859375,left,175.7905158996582,None,-1,-1,pp_15,icub,clamp,2021_Dec_23_1430,exp,2021.2.3,59.86269970627443,
left,stop,0,0,0,0,4,0,24,2,176.30894899368286,None,1,0.6367847919464111,176.30894899368286,None,177.02680706977844,None,178.02914905548096,178.38653302192688,178.02914905548096,178.38653302192688,177.02680706977844,None,177.02680706977844,None,177.02680706977844,None,0,True,359.68613624572754,770.4648971557617,left,180.05155301094055,None,550,550,pp_15,icub,clamp,2021_Dec_23_1430,exp,2021.2.3,59.86269970627443,
left,go,0,0,0,0,4,1,25,1,180.57351183891296,None,1,0.6661279201507568,180.57351183891296,None,181.36342692375183,None,182.38036489486694,182.72720098495483,182.38036489486694,182.72720098495483,181.36342692375183,None,181.36342692375183,None,181.36342692375183,None,1,True,426.6512393951416,672.3353862762451,left,184.35319089889526,None,-1,-1,pp_15,icub,clamp,2021_Dec_23_1430,exp,2021.2.3,59.86269970627443,
left,stop,0,0,0,0,4,2,26,2,184.85004901885986,None,1,0.6705708503723145,184.85004901885986,None,185.63999700546265,None,186.64242506027222,186.99240589141846,186.64242506027222,186.99240589141846,185.63999700546265,None,185.63999700546265,None,185.63999700546265,None,1,True,317.0459270477295,-1.0,-1,190.83924007415771,None,500,550,pp_15,icub,clamp,2021_Dec_23_1430,exp,2021.2.3,59.86269970627443,
right,stop,0,0,0,0,4,3,27,5,191.37094688415527,None,1,0.32849693298339844,191.37094688415527,None,191.79753804206848,None,192.7712299823761,193.12620401382446,192.7712299823761,193.12620401382446,191.79753804206848,None,191.79753804206848,None,191.79753804206848,None,1,True,330.4922580718994,-1.0,-1,197.01700592041016,None,550,550,pp_15,icub,clamp,2021_Dec_23_1430,exp,2021.2.3,59.86269970627443,
left,go,0,0,0,0,4,4,28,0,197.54738783836365,None,1,0.2288661003112793,197.54738783836365,None,197.91266989707947,None,198.8937270641327,199.2447760105133,198.8937270641327,199.2447760105133,197.91266989707947,None,197.91266989707947,None,197.91266989707947,None,1,True,71.36654853820801,862.7150058746338,left,200.74598288536072,None,-1,-1,pp_15,icub,clamp,2021_Dec_23_1430,exp,2021.2.3,59.86269970627443,
right,stop,0,0,0,0,4,5,29,5,201.24632096290588,None,1,0.717710018157959,201.24632096290588,None,202.091472864151,None,203.09863686561584,203.46145296096802,203.09863686561584,203.46145296096802,202.091472864151,None,202.091472864151,None,202.091472864151,None,1,True,380.382776260376,-1.0,-1,207.37354588508606,None,550,600,pp_15,icub,clamp,2021_Dec_23_1430,exp,2021.2.3,59.86269970627443,
right,go,0,0,0,0,5,0,30,3,207.90638494491577,None,1,0.24704504013061523,207.90638494491577,None,208.2717490196228,None,209.25270891189575,209.59721183776855,209.25270891189575,209.59721183776855,208.2717490196228,None,208.2717490196228,None,208.2717490196228,None,1,True,271.5489864349365,907.4299335479736,right,211.33137607574463,None,-1,-1,pp_15,icub,clamp,2021_Dec_23_1430,exp,2021.2.3,59.86269970627443,
right,go,0,0,0,0,5,1,31,3,211.8441550731659,None,1,0.5559530258178711,211.8441550731659,None,212.50787091255188,None,213.52122807502747,213.88421988487244,213.52122807502747,213.88421988487244,212.50787091255188,None,212.50787091255188,None,212.50787091255188,None,1,True,349.4389057159424,800.8759021759033,right,215.55260586738586,None,-1,-1,pp_15,icub,clamp,2021_Dec_23_1430,exp,2021.2.3,59.86269970627443,
left,go,0,0,0,0,5,2,32,1,216.05913591384888,None,1,0.4364638328552246,216.05913591384888,None,216.60174989700317,None,217.61048007011414,217.96853184700012,217.61048007011414,217.96853184700012,216.60174989700317,None,216.60174989700317,None,216.60174989700317,None,1,True,431.6849708557129,840.7435417175293,left,219.77241897583008,None,-1,-1,pp_15,icub,clamp,2021_Dec_23_1430,exp,2021.2.3,59.86269970627443,
left,go,0,0,0,0,5,3,33,0,220.28552389144897,None,1,0.6002490520477295,220.28552389144897,None,221.00912594795227,None,222.01419496536255,222.3622670173645,222.01419496536255,222.3622670173645,221.00912594795227,None,221.00912594795227,None,221.00912594795227,None,1,True,328.9341926574707,726.6485691070557,left,223.9691300392151,None,-1,-1,pp_15,icub,clamp,2021_Dec_23_1430,exp,2021.2.3,59.86269970627443,
left,stop,0,0,0,0,5,4,34,2,224.47704887390137,None,1,0.7015130519866943,224.47704887390137,None,225.26984095573425,None,226.26803493499756,226.63504099845886,226.26803493499756,226.63504099845886,225.26984095573425,None,225.26984095573425,None,225.26984095573425,None,0,True,300.2939224243164,712.4958038330078,left,228.18320107460022,None,550,650,pp_15,icub,clamp,2021_Dec_23_1430,exp,2021.2.3,59.86269970627443,
right,stop,0,0,0,0,5,5,35,5,228.71457695960999,None,1,0.6552400588989258,228.71457695960999,None,229.5001790523529,None,230.51611995697021,230.876366853714,230.51611995697021,230.876366853714,229.5001790523529,None,229.5001790523529,None,229.5001790523529,None,0,True,405.84516525268555,628.1416416168213,right,232.4214220046997,None,500,650,pp_15,icub,clamp,2021_Dec_23_1430,exp,2021.2.3,59.86269970627443,
left,stop,0,0,0,0,6,0,36,2,232.9264509677887,None,1,0.6625020503997803,232.9264509677887,None,233.71176505088806,None,234.71824884414673,235.07168197631836,234.71824884414673,235.07168197631836,233.71176505088806,None,233.71176505088806,None,233.71176505088806,None,1,True,278.303861618042,-1.0,-1,238.88126587867737,None,500,600,pp_15,icub,clamp,2021_Dec_23_1430,exp,2021.2.3,59.86269970627443,
right,go,0,0,0,0,6,1,37,3,239.37559294700623,None,1,0.35587501525878906,239.37559294700623,None,239.86357307434082,None,240.8424379825592,241.20563197135925,240.8424379825592,241.20563197135925,239.86357307434082,None,239.86357307434082,None,239.86357307434082,None,1,True,219.6493148803711,866.3103580474854,right,242.81539106369019,None,-1,-1,pp_15,icub,clamp,2021_Dec_23_1430,exp,2021.2.3,59.86269970627443,
left,go,0,0,0,0,6,2,38,0,243.3354208469391,None,1,0.5547850131988525,243.3354208469391,None,244.00145506858826,None,245.0244598388672,245.38214802742004,245.0244598388672,245.38214802742004,244.00145506858826,None,244.00145506858826,None,244.00145506858826,None,1,True,334.4094753265381,734.6148490905762,left,246.97175884246826,None,-1,-1,pp_15,icub,clamp,2021_Dec_23_1430,exp,2021.2.3,59.86269970627443,
left,stop,0,0,0,0,6,3,39,2,247.51138997077942,None,1,0.5740199089050293,247.51138997077942,None,248.17582392692566,None,249.1884410381317,249.5374720096588,249.1884410381317,249.5374720096588,248.17582392692566,None,248.17582392692566,None,248.17582392692566,None,1,True,348.4475612640381,-1.0,-1,253.40529203414917,None,550,600,pp_15,icub,clamp,2021_Dec_23_1430,exp,2021.2.3,59.86269970627443,
right,go,0,0,0,0,6,4,40,4,253.9366638660431,None,1,0.2839369773864746,253.9366638660431,None,254.30140495300293,None,255.28253293037415,255.638601064682,255.28253293037415,255.638601064682,254.30140495300293,None,254.30140495300293,None,254.30140495300293,None,1,True,300.382137298584,735.6853485107422,right,257.2015759944916,None,-1,-1,pp_15,icub,clamp,2021_Dec_23_1430,exp,2021.2.3,59.86269970627443,
right,stop,0,0,0,0,6,5,41,5,257.72090697288513,None,1,0.5329020023345947,257.72090697288513,None,258.3290069103241,None,259.3417110443115,259.7021908760071,259.3417110443115,259.7021908760071,258.3290069103241,None,258.3290069103241,None,258.3290069103241,None,0,True,489.46666717529297,696.4106559753418,right,261.41533184051514,None,600,600,pp_15,icub,clamp,2021_Dec_23_1430,exp,2021.2.3,59.86269970627443,
right,go,0,0,0,0,7,0,42,4,261.9276809692383,None,1,0.8275439739227295,261.9276809692383,None,262.8406538963318,None,263.84619402885437,264.2111189365387,263.84619402885437,264.2111189365387,262.8406538963318,None,262.8406538963318,None,262.8406538963318,None,1,True,344.4840908050537,735.741138458252,right,265.82841086387634,None,-1,-1,pp_15,icub,clamp,2021_Dec_23_1430,exp,2021.2.3,59.86269970627443,
right,go,0,0,0,0,7,1,43,4,266.34848403930664,None,1,0.7025279998779297,266.34848403930664,None,267.1401388645172,None,268.1716248989105,268.5110750198364,268.1716248989105,268.5110750198364,267.1401388645172,None,267.1401388645172,None,267.1401388645172,None,1,True,393.86510848999023,771.7900276184082,right,270.2006549835205,None,-1,-1,pp_15,icub,clamp,2021_Dec_23_1430,exp,2021.2.3,59.86269970627443,
left,go,0,0,0,0,7,2,44,1,270.720773935318,None,1,0.5081720352172852,270.720773935318,None,271.32390689849854,None,272.3478329181671,272.7020390033722,272.3478329181671,272.7020390033722,271.32390689849854,None,271.32390689849854,None,271.32390689849854,None,1,True,385.3926658630371,789.9661064147949,left,274.40957498550415,None,-1,-1,pp_15,icub,clamp,2021_Dec_23_1430,exp,2021.2.3,59.86269970627443,
right,stop,0,0,0,0,7,3,45,5,274.9187059402466,None,1,0.6294071674346924,274.9187059402466,None,275.64844703674316,None,276.6610219478607,277.0208079814911,276.6610219478607,277.0208079814911,275.64844703674316,None,275.64844703674316,None,275.64844703674316,None,0,True,185.99462509155273,671.7383861541748,right,278.40251898765564,None,600,550,pp_15,icub,clamp,2021_Dec_23_1430,exp,2021.2.3,59.86269970627443,
left,stop,0,0,0,0,7,4,46,2,278.9311499595642,None,1,0.7496688365936279,278.9311499595642,None,279.7812478542328,None,280.791424036026,281.14250588417053,280.791424036026,281.14250588417053,279.7812478542328,None,279.7812478542328,None,279.7812478542328,None,0,True,281.0237407684326,716.51291847229,left,282.6638009548187,None,600,500,pp_15,icub,clamp,2021_Dec_23_1430,exp,2021.2.3,59.86269970627443,
right,go,0,0,0,0,7,5,47,3,283.18121886253357,None,1,0.5418000221252441,283.18121886253357,None,283.8436839580536,None,284.8622410297394,285.2044599056244,284.8622410297394,285.2044599056244,283.8436839580536,None,283.8436839580536,None,283.8436839580536,None,1,True,339.15233612060547,778.1589031219482,right,286.8533298969269,None,-1,-1,pp_15,icub,clamp,2021_Dec_23_1430,exp,2021.2.3,59.86269970627443,
right,stop,0,0,0,0,8,0,48,5,287.3779330253601,None,1,0.5330250263214111,287.3779330253601,None,287.98143792152405,None,288.9998390674591,289.36466693878174,288.9998390674591,289.36466693878174,287.98143792152405,None,287.98143792152405,None,287.98143792152405,None,0,True,791.9819355010986,673.2220649719238,right,291.32513999938965,None,550,500,pp_15,icub,clamp,2021_Dec_23_1430,exp,2021.2.3,59.86269970627443,
left,go,0,0,0,0,8,1,49,1,291.8436288833618,None,1,0.6604089736938477,291.8436288833618,None,292.62465500831604,None,293.64189291000366,293.98177194595337,293.64189291000366,293.98177194595337,292.62465500831604,None,292.62465500831604,None,292.62465500831604,None,1,True,59.427499771118164,1027.7385711669922,left,295.60339283943176,None,-1,-1,pp_15,icub,clamp,2021_Dec_23_1430,exp,2021.2.3,59.86269970627443,
left,go,0,0,0,0,8,2,50,1,296.1178958415985,None,1,0.6142559051513672,296.1178958415985,None,296.8477249145508,None,297.8622999191284,298.21045303344727,297.8622999191284,298.21045303344727,296.8477249145508,None,296.8477249145508,None,296.8477249145508,None,1,True,317.2745704650879,742.6393032073975,left,299.7959129810333,None,-1,-1,pp_15,icub,clamp,2021_Dec_23_1430,exp,2021.2.3,59.86269970627443,
right,stop,0,0,0,0,8,3,51,5,300.313246011734,None,1,0.6385388374328613,300.313246011734,None,301.08026003837585,None,302.0843470096588,302.4293808937073,302.0843470096588,302.4293808937073,301.08026003837585,None,301.08026003837585,None,301.08026003837585,None,1,True,343.0473804473877,-1.0,-1,306.2952768802643,None,550,450,pp_15,icub,clamp,2021_Dec_23_1430,exp,2021.2.3,59.86269970627443,
right,stop,0,0,0,0,8,4,52,5,306.8276209831238,None,1,0.2970712184906006,306.8276209831238,None,307.2554099559784,None,308.24035596847534,308.6079568862915,308.24035596847534,308.6079568862915,307.2554099559784,None,307.2554099559784,None,307.2554099559784,None,1,True,368.0300712585449,-1.0,-1,312.50572896003723,None,550,500,pp_15,icub,clamp,2021_Dec_23_1430,exp,2021.2.3,59.86269970627443,
left,stop,0,0,0,0,8,5,53,2,313.0362298488617,None,1,0.27945709228515625,313.0362298488617,None,313.40077090263367,None,314.38091707229614,314.7323670387268,314.38091707229614,314.7323670387268,313.40077090263367,None,313.40077090263367,None,313.40077090263367,None,1,True,289.9050712585449,-1.0,-1,318.5844578742981,None,550,550,pp_15,icub,clamp,2021_Dec_23_1430,exp,2021.2.3,59.86269970627443,
left,go,0,0,0,0,9,0,54,1,319.11631894111633,None,1,0.22124290466308594,319.11631894111633,None,319.4206919670105,None,320.3944208621979,320.7455680370331,320.3944208621979,320.7455680370331,319.4206919670105,None,319.4206919670105,None,319.4206919670105,None,1,True,399.65152740478516,843.7955379486084,left,322.5526258945465,None,-1,-1,pp_15,icub,clamp,2021_Dec_23_1430,exp,2021.2.3,59.86269970627443,
left,stop,0,0,0,0,9,1,55,2,323.068696975708,None,1,0.8242900371551514,323.068696975708,None,323.9835078716278,None,325.01553297042847,325.3754599094391,325.01553297042847,325.3754599094391,323.9835078716278,None,323.9835078716278,None,323.9835078716278,None,1,True,346.1649417877197,-1.0,-1,329.2104139328003,None,600,550,pp_15,icub,clamp,2021_Dec_23_1430,exp,2021.2.3,59.86269970627443,
left,stop,0,0,0,0,9,2,56,2,329.7426300048828,None,1,0.32915306091308594,329.7426300048828,None,330.1695170402527,None,331.1435179710388,331.49339985847473,331.1435179710388,331.49339985847473,330.1695170402527,None,330.1695170402527,None,330.1695170402527,None,0,True,286.9746685028076,839.4885063171387,left,333.19076895713806,None,650,550,pp_15,icub,clamp,2021_Dec_23_1430,exp,2021.2.3,59.86269970627443,
left,go,0,0,0,0,9,3,57,1,333.7195818424225,None,1,0.6586000919342041,333.7195818424225,None,334.5061960220337,None,335.5372838973999,335.8583788871765,335.5372838973999,335.8583788871765,334.5061960220337,None,334.5061960220337,None,334.5061960220337,None,1,True,485.750675201416,935.6415271759033,left,337.8419420719147,None,-1,-1,pp_15,icub,clamp,2021_Dec_23_1430,exp,2021.2.3,59.86269970627443,
right,stop,0,0,0,0,9,4,58,5,338.33796191215515,None,1,0.6534900665283203,338.33796191215515,None,339.1238639354706,None,340.1530659198761,340.50588488578796,340.1530659198761,340.50588488578796,339.1238639354706,None,339.1238639354706,None,339.1238639354706,None,1,True,497.830867767334,-1.0,-1,344.4935128688812,None,600,550,pp_15,icub,clamp,2021_Dec_23_1430,exp,2021.2.3,59.86269970627443,
left,go,0,0,0,0,9,5,59,0,345.024297952652,None,1,0.3094758987426758,345.024297952652,None,345.4497790336609,None,346.45974802970886,346.82419896125793,346.45974802970886,346.82419896125793,345.4497790336609,None,345.4497790336609,None,345.4497790336609,None,1,True,307.74688720703125,858.4873676300049,left,348.515408039093,None,-1,-1,pp_15,icub,clamp,2021_Dec_23_1430,exp,2021.2.3,59.86269970627443,
left,go,0,0,0,0,10,0,60,0,349.0529098510742,None,1,0.724128007888794,349.0529098510742,None,349.9053530693054,None,350.91715002059937,351.2774770259857,350.91715002059937,351.2774770259857,349.9053530693054,None,349.9053530693054,None,349.9053530693054,None,1,True,320.2488422393799,862.313985824585,left,352.9870228767395,None,-1,-1,pp_15,icub,clamp,2021_Dec_23_1430,exp,2021.2.3,59.86269970627443,
right,go,0,0,0,0,10,1,61,4,353.4944820404053,None,1,0.7915940284729004,353.4944820404053,None,354.4051558971405,None,355.4391059875488,355.7900550365448,355.4391059875488,355.7900550365448,354.4051558971405,None,354.4051558971405,None,354.4051558971405,None,1,True,398.897647857666,698.1029510498047,right,357.40583395957947,None,-1,-1,pp_15,icub,clamp,2021_Dec_23_1430,exp,2021.2.3,59.86269970627443,
left,go,0,0,0,0,10,2,62,0,357.9264249801636,None,1,0.7436051368713379,357.9264249801636,None,358.77547693252563,None,359.7967619895935,360.1554489135742,359.7967619895935,360.1554489135742,358.77547693252563,None,358.77547693252563,None,358.77547693252563,None,1,True,389.70088958740234,816.166877746582,left,361.8935308456421,None,-1,-1,pp_15,icub,clamp,2021_Dec_23_1430,exp,2021.2.3,59.86269970627443,
right,go,0,0,0,0,10,3,63,4,362.42449402809143,None,1,0.7205848693847656,362.42449402809143,None,363.2732779979706,None,364.29997086524963,364.66312885284424,364.29997086524963,364.66312885284424,363.2732779979706,None,363.2732779979706,None,363.2732779979706,None,0,False,-1.0,-1.0,-1,364.9253158569336,None,,,pp_15,icub,clamp,2021_Dec_23_1430,exp,2021.2.3,59.86269970627443,
right,go,0,0,0,0,10,4,64,4,365.4178569316864,None,1,1.241283893585205,365.4178569316864,None,366.73947191238403,None,367.76823902130127,368.13229393959045,367.76823902130127,368.13229393959045,366.73947191238403,None,366.73947191238403,None,366.73947191238403,None,1,True,677.330732345581,558.6745738983154,right,369.8674650192261,None,-1,-1,pp_15,icub,clamp,2021_Dec_23_1430,exp,2021.2.3,59.86269970627443,
right,go,0,0,0,0,10,5,65,4,370.37458896636963,None,1,0.7578849792480469,370.37458896636963,None,371.2239429950714,None,372.22728395462036,372.5737929344177,372.22728395462036,372.5737929344177,371.2239429950714,None,371.2239429950714,None,371.2239429950714,None,1,True,274.67799186706543,716.6585922241211,right,374.10054993629456,None,-1,-1,pp_15,icub,clamp,2021_Dec_23_1430,exp,2021.2.3,59.86269970627443,
left,stop,0,0,0,0,11,0,66,2,374.63319206237793,None,1,0.446990966796875,374.63319206237793,None,375.17403388023376,None,376.17803287506104,376.5347340106964,376.17803287506104,376.5347340106964,375.17403388023376,None,375.17403388023376,None,375.17403388023376,None,0,True,334.8045349121094,736.6673946380615,left,378.1402339935303,None,600,600,pp_15,icub,clamp,2021_Dec_23_1430,exp,2021.2.3,59.86269970627443,
left,go,0,0,0,0,11,1,67,0,378.6480438709259,None,1,0.827052116394043,378.6480438709259,None,379.56542205810547,None,380.5919849872589,380.93934988975525,380.5919849872589,380.93934988975525,379.56542205810547,None,379.56542205810547,None,379.56542205810547,None,1,True,382.82012939453125,643.0766582489014,left,382.4768259525299,None,-1,-1,pp_15,icub,clamp,2021_Dec_23_1430,exp,2021.2.3,59.86269970627443,
right,go,0,0,0,0,11,2,68,4,382.9983289241791,None,1,0.6632061004638672,382.9983289241791,None,383.7851438522339,None,384.81398487091064,385.14862084388733,384.81398487091064,385.14862084388733,383.7851438522339,None,383.7851438522339,None,383.7851438522339,None,1,True,506.05130195617676,645.2016830444336,right,386.8259439468384,None,-1,-1,pp_15,icub,clamp,2021_Dec_23_1430,exp,2021.2.3,59.86269970627443,
right,go,0,0,0,0,11,3,69,3,387.3230059146881,None,1,0.5667209625244141,387.3230059146881,None,387.97898292541504,None,388.9958598613739,389.3530719280243,388.9958598613739,389.3530719280243,387.97898292541504,None,387.97898292541504,None,387.97898292541504,None,1,True,381.1228275299072,657.761812210083,right,390.92395091056824,None,-1,-1,pp_15,icub,clamp,2021_Dec_23_1430,exp,2021.2.3,59.86269970627443,
right,go,0,0,0,0,11,4,70,4,391.4415318965912,None,1,0.6677520275115967,391.4415318965912,None,392.2235870361328,None,393.2582218647003,393.6150369644165,393.2582218647003,393.6150369644165,392.2235870361328,None,392.2235870361328,None,392.2235870361328,None,1,True,370.3000545501709,679.8362731933594,right,395.15091490745544,None,-1,-1,pp_15,icub,clamp,2021_Dec_23_1430,exp,2021.2.3,59.86269970627443,
left,go,0,0,0,0,11,5,71,1,395.6732659339905,None,1,0.7647428512573242,395.6732659339905,None,396.52356791496277,None,397.53663301467896,397.895742893219,397.53663301467896,397.895742893219,396.52356791496277,None,396.52356791496277,None,396.52356791496277,None,1,True,459.87606048583984,616.044282913208,left,399.5000259876251,None,-1,-1,pp_15,icub,clamp,2021_Dec_23_1430,exp,2021.2.3,59.86269970627443,
right,go,0,0,0,0,12,0,72,4,400.034236907959,None,1,0.5310149192810059,400.034236907959,None,400.6987500190735,None,401.7053759098053,402.0595419406891,401.7053759098053,402.0595419406891,400.6987500190735,None,400.6987500190735,None,400.6987500190735,None,1,True,329.3468952178955,618.1488037109375,right,403.5327410697937,None,-1,-1,pp_15,icub,clamp,2021_Dec_23_1430,exp,2021.2.3,59.86269970627443,
left,go,0,0,0,0,12,1,73,1,404.04046392440796,None,1,0.6590888500213623,404.04046392440796,None,404.82717990875244,None,405.84530305862427,406.2066979408264,405.84530305862427,406.2066979408264,404.82717990875244,None,404.82717990875244,None,404.82717990875244,None,1,True,283.9052677154541,723.0768203735352,left,407.7419149875641,None,-1,-1,pp_15,icub,clamp,2021_Dec_23_1430,exp,2021.2.3,59.86269970627443,
right,go,0,0,0,0,12,2,74,3,408.25921297073364,None,1,0.8681001663208008,408.25921297073364,None,409.2352650165558,None,410.24782705307007,410.5980968475342,410.24782705307007,410.5980968475342,409.2352650165558,None,409.2352650165558,None,409.2352650165558,None,1,True,371.5026378631592,591.9992923736572,right,412.0903968811035,None,-1,-1,pp_15,icub,clamp,2021_Dec_23_1430,exp,2021.2.3,59.86269970627443,
left,stop,0,0,0,0,12,3,75,2,412.6221878528595,None,1,0.5932159423828125,412.6221878528595,None,413.3438808917999,None,414.34351801872253,414.695396900177,414.34351801872253,414.695396900177,413.3438808917999,None,413.3438808917999,None,413.3438808917999,None,0,True,405.69519996643066,708.0521583557129,left,416.3332178592682,None,550,600,pp_15,icub,clamp,2021_Dec_23_1430,exp,2021.2.3,59.86269970627443,
left,stop,0,0,0,0,12,4,76,2,416.84100103378296,None,1,0.7603919506072998,416.84100103378296,None,417.6921410560608,None,418.70251297950745,419.06642603874207,418.70251297950745,419.06642603874207,417.6921410560608,None,417.6921410560608,None,417.6921410560608,None,0,True,376.25980377197266,740.8769130706787,left,420.71209597587585,None,500,600,pp_15,icub,clamp,2021_Dec_23_1430,exp,2021.2.3,59.86269970627443,
left,go,0,0,0,0,12,5,77,0,421.2262330055237,None,1,0.5372250080108643,421.2262330055237,None,421.88801288604736,None,422.8888020515442,423.2413239479065,422.8888020515442,423.2413239479065,421.88801288604736,None,421.88801288604736,None,421.88801288604736,None,1,True,426.2208938598633,811.6910457611084,left,425.03604888916016,None,-1,-1,pp_15,icub,clamp,2021_Dec_23_1430,exp,2021.2.3,59.86269970627443,
left,stop,1,0,1,0,0,0,0,2,435.2809829711914,None,1,7.5974390506744385,435.2809829711914,None,442.9855959415436,None,443.991819858551,444.3482789993286,443.991819858551,444.3482789993286,442.9855959415436,None,442.9855959415436,None,442.9855959415436,None,0,True,506.09517097473145,621.4148998260498,left,446.0102319717407,None,450,600,pp_15,icub,clamp,2021_Dec_23_1430,exp,2021.2.3,59.86269970627443,
right,go,1,0,1,0,0,1,1,4,446.5159480571747,None,1,0.5863401889801025,446.5159480571747,None,447.22974705696106,None,448.25021505355835,448.61047196388245,448.25021505355835,448.61047196388245,447.22974705696106,None,447.22974705696106,None,447.22974705696106,None,0,False,3000.138521194458,-1.0,-1,452.1197588443756,None,,,pp_15,icub,clamp,2021_Dec_23_1430,exp,2021.2.3,59.86269970627443,
right,go,1,0,1,0,0,2,2,3,452.651752948761,None,1,0.5469138622283936,452.651752948761,None,453.31942987442017,None,454.3195118904114,454.6475329399109,454.3195118904114,454.6475329399109,453.31942987442017,None,453.31942987442017,None,453.31942987442017,None,1,True,440.8912658691406,753.929615020752,right,456.404748916626,None,-1,-1,pp_15,icub,clamp,2021_Dec_23_1430,exp,2021.2.3,59.86269970627443,
left,go,1,0,1,0,0,3,3,0,456.91098403930664,None,1,0.7047140598297119,456.91098403930664,None,457.7011890411377,None,458.6978008747101,459.06792306900024,458.6978008747101,459.06792306900024,457.7011890411377,None,457.7011890411377,None,457.7011890411377,None,1,True,483.1531047821045,840.9559726715088,left,460.9169578552246,None,-1,-1,pp_15,icub,clamp,2021_Dec_23_1430,exp,2021.2.3,59.86269970627443,
right,stop,1,0,1,0,0,4,4,5,461.4365520477295,None,1,0.7920410633087158,461.4365520477295,None,462.34960198402405,None,463.3502399921417,463.6919400691986,463.3502399921417,463.6919400691986,462.34960198402405,None,462.34960198402405,None,462.34960198402405,None,0,True,362.90955543518066,730.1466464996338,right,465.3231780529022,None,400,600,pp_15,icub,clamp,2021_Dec_23_1430,exp,2021.2.3,59.86269970627443,
left,go,1,0,1,0,0,5,5,0,465.8291959762573,None,1,0.6064169406890869,465.8291959762573,None,466.559287071228,None,467.58046102523804,467.94936895370483,467.58046102523804,467.94936895370483,466.559287071228,None,466.559287071228,None,466.559287071228,None,1,True,467.7248001098633,663.0206108093262,left,469.56607604026794,None,-1,-1,pp_15,icub,clamp,2021_Dec_23_1430,exp,2021.2.3,59.86269970627443,
left,go,1,0,1,0,1,0,6,1,470.0677888393402,None,1,0.7264790534973145,470.0677888393402,None,470.9179220199585,None,471.92332196235657,472.2499420642853,471.92332196235657,472.2499420642853,470.9179220199585,None,470.9179220199585,None,470.9179220199585,None,1,True,395.4334259033203,743.621826171875,left,473.9620759487152,None,-1,-1,pp_15,icub,clamp,2021_Dec_23_1430,exp,2021.2.3,59.86269970627443,
left,go,1,0,1,0,1,1,7,1,474.4803948402405,None,1,0.6599938869476318,474.4803948402405,None,475.2629859447479,None,476.2793798446655,476.624235868454,476.2793798446655,476.624235868454,475.2629859447479,None,475.2629859447479,None,475.2629859447479,None,1,True,397.36056327819824,745.34010887146,left,478.30536794662476,None,-1,-1,pp_15,icub,clamp,2021_Dec_23_1430,exp,2021.2.3,59.86269970627443,
right,stop,1,0,1,0,1,2,8,5,478.81529688835144,None,1,0.8220829963684082,478.81529688835144,None,479.74953389167786,None,480.76073002815247,481.1089389324188,480.76073002815247,481.1089389324188,479.74953389167786,None,479.74953389167786,None,479.74953389167786,None,0,True,366.41836166381836,679.4464588165283,right,482.6887729167938,None,400,550,pp_15,icub,clamp,2021_Dec_23_1430,exp,2021.2.3,59.86269970627443,
right,go,1,0,1,0,1,3,9,3,483.21968483924866,None,1,0.5679631233215332,483.21968483924866,None,483.88853883743286,None,484.8828229904175,485.2385220527649,484.8828229904175,485.2385220527649,483.88853883743286,None,483.88853883743286,None,483.88853883743286,None,1,True,373.37374687194824,696.3188648223877,right,486.839164018631,None,-1,-1,pp_15,icub,clamp,2021_Dec_23_1430,exp,2021.2.3,59.86269970627443,
left,go,1,0,1,0,1,4,10,0,487.3608479499817,None,1,0.7476058006286621,487.3608479499817,None,488.2151870727539,None,489.23828196525574,489.586590051651,489.23828196525574,489.586590051651,488.2151870727539,None,488.2151870727539,None,488.2151870727539,None,1,True,401.1540412902832,689.1341209411621,left,491.2049560546875,None,-1,-1,pp_15,icub,clamp,2021_Dec_23_1430,exp,2021.2.3,59.86269970627443,
right,go,1,0,1,0,1,5,11,4,491.7216420173645,None,1,0.7130868434906006,491.7216420173645,None,492.56739687919617,None,493.57052993774414,493.926069021225,493.57052993774414,493.926069021225,492.56739687919617,None,492.56739687919617,None,492.56739687919617,None,1,True,340.9254550933838,625.9899139404297,right,495.42607593536377,None,-1,-1,pp_15,icub,clamp,2021_Dec_23_1430,exp,2021.2.3,59.86269970627443,
right,go,1,0,1,0,2,0,12,4,495.96002984046936,None,1,0.7854809761047363,495.96002984046936,None,496.8678820133209,None,497.8791449069977,498.2398450374603,497.8791449069977,498.2398450374603,496.8678820133209,None,496.8678820133209,None,496.8678820133209,None,1,True,325.2866268157959,736.6030216217041,right,499.8269670009613,None,-1,-1,pp_15,icub,clamp,2021_Dec_23_1430,exp,2021.2.3,59.86269970627443,
right,stop,1,0,1,0,2,1,13,5,500.3467450141907,None,1,0.7117869853973389,500.3467450141907,None,501.139023065567,None,502.149533033371,502.4860279560089,502.149533033371,502.4860279560089,501.139023065567,None,501.139023065567,None,501.139023065567,None,0,True,261.4717483520508,676.0270595550537,right,503.9591829776764,None,400,500,pp_15,icub,clamp,2021_Dec_23_1430,exp,2021.2.3,59.86269970627443,
right,stop,1,0,1,0,2,2,14,5,504.4555368423462,None,1,0.5879800319671631,504.4555368423462,None,505.1238839626312,None,506.1471779346466,506.51421785354614,506.1471779346466,506.51421785354614,505.1238839626312,None,505.1238839626312,None,505.1238839626312,None,0,True,367.3214912414551,718.2796001434326,right,508.1161198616028,None,400,450,pp_15,icub,clamp,2021_Dec_23_1430,exp,2021.2.3,59.86269970627443,
left,stop,1,0,1,0,2,3,15,2,508.6323330402374,None,1,0.5025560855865479,508.6323330402374,None,509.2203299999237,None,510.25470495224,510.6045079231262,510.25470495224,510.6045079231262,509.2203299999237,None,509.2203299999237,None,509.2203299999237,None,1,True,368.610143661499,-1.0,-1,514.4710218906403,None,400,400,pp_15,icub,clamp,2021_Dec_23_1430,exp,2021.2.3,59.86269970627443,
right,stop,1,0,1,0,2,4,16,5,514.9634640216827,None,1,0.2681450843811035,514.9634640216827,None,515.3285119533539,None,516.3297159671783,516.6752698421478,516.3297159671783,516.6752698421478,515.3285119533539,None,515.3285119533539,None,515.3285119533539,None,1,True,334.26690101623535,-1.0,-1,520.5274188518524,None,450,400,pp_15,icub,clamp,2021_Dec_23_1430,exp,2021.2.3,59.86269970627443,
left,stop,1,0,1,0,2,5,17,2,521.058552980423,None,1,0.24155402183532715,521.058552980423,None,521.423045873642,None,522.4092018604279,522.7654478549957,522.4092018604279,522.7654478549957,521.423045873642,None,521.423045873642,None,521.423045873642,None,1,True,398.2076644897461,-1.0,-1,526.6941878795624,None,450,450,pp_15,icub,clamp,2021_Dec_23_1430,exp,2021.2.3,59.86269970627443,
left,stop,1,0,1,0,3,0,18,2,527.2255458831787,None,1,0.27573704719543457,527.2255458831787,None,527.589987039566,None,528.5618460178375,528.8837280273438,528.5618460178375,528.8837280273438,527.589987039566,None,527.589987039566,None,527.589987039566,None,1,True,318.78042221069336,-1.0,-1,532.8015048503876,None,500,450,pp_15,icub,clamp,2021_Dec_23_1430,exp,2021.2.3,59.86269970627443,
left,stop,1,0,1,0,3,1,19,2,533.3340640068054,None,1,0.28614211082458496,533.3340640068054,None,533.6988408565521,None,534.7065620422363,535.0459749698639,534.7065620422363,535.0459749698639,533.6988408565521,None,533.6988408565521,None,533.6988408565521,None,1,True,405.1496982574463,-1.0,-1,538.9789888858795,None,550,450,pp_15,icub,clamp,2021_Dec_23_1430,exp,2021.2.3,59.86269970627443,
right,stop,1,0,1,0,3,2,20,5,539.5091769695282,None,1,0.30907678604125977,539.5091769695282,None,539.9370679855347,None,540.9222898483276,541.2790670394897,540.9222898483276,541.2790670394897,539.9370679855347,None,539.9370679855347,None,539.9370679855347,None,1,True,407.9551696777344,-1.0,-1,545.2412488460541,None,600,450,pp_15,icub,clamp,2021_Dec_23_1430,exp,2021.2.3,59.86269970627443,
left,go,1,0,1,0,3,3,21,1,545.7721009254456,None,1,0.21895718574523926,545.7721009254456,None,546.0754809379578,None,547.0583820343018,547.4159109592438,547.0583820343018,547.4159109592438,546.0754809379578,None,546.0754809379578,None,546.0754809379578,None,1,True,356.4422130584717,808.3596229553223,left,549.1130139827728,None,-1,-1,pp_15,icub,clamp,2021_Dec_23_1430,exp,2021.2.3,59.86269970627443,
right,stop,1,0,1,0,3,4,22,5,549.6327710151672,None,1,0.7399029731750488,549.6327710151672,None,550.4788789749146,None,551.5104849338531,551.8613829612732,551.5104849338531,551.8613829612732,550.4788789749146,None,550.4788789749146,None,550.4788789749146,None,1,True,375.64611434936523,-1.0,-1,555.7299568653107,None,600,500,pp_15,icub,clamp,2021_Dec_23_1430,exp,2021.2.3,59.86269970627443,
right,go,1,0,1,0,3,5,23,4,556.2615280151367,None,1,0.26984381675720215,556.2615280151367,None,556.6279909610748,None,557.6127049922943,557.9598999023438,557.6127049922943,557.9598999023438,556.6279909610748,None,556.6279909610748,None,556.6279909610748,None,1,True,628.593921661377,827.6958465576172,right,559.9724140167236,None,-1,-1,pp_15,icub,clamp,2021_Dec_23_1430,exp,2021.2.3,59.86269970627443,
right,go,1,0,1,0,4,0,24,3,560.475751876831,None,1,0.5567238330841064,560.475751876831,None,561.1428439617157,None,562.1594619750977,562.51203083992,562.1594619750977,562.51203083992,561.1428439617157,None,561.1428439617157,None,561.1428439617157,None,1,True,309.70120429992676,680.1986694335938,right,564.0301849842072,None,-1,-1,pp_15,icub,clamp,2021_Dec_23_1430,exp,2021.2.3,59.86269970627443,
right,go,1,0,1,0,4,1,25,3,564.5480148792267,None,1,0.6525599956512451,564.5480148792267,None,565.2808780670166,None,566.2752740383148,566.6440808773041,566.2752740383148,566.6440808773041,565.2808780670166,None,565.2808780670166,None,565.2808780670166,None,1,True,307.0499897003174,723.3548164367676,right,568.2033638954163,None,-1,-1,pp_15,icub,clamp,2021_Dec_23_1430,exp,2021.2.3,59.86269970627443,
left,go,1,0,1,0,4,2,26,0,568.7353839874268,None,1,0.7272131443023682,568.7353839874268,None,569.5854320526123,None,570.6080808639526,570.967512845993,570.6080808639526,570.967512845993,569.5854320526123,None,569.5854320526123,None,569.5854320526123,None,1,True,470.4170227050781,739.0234470367432,left,572.698637008667,None,-1,-1,pp_15,icub,clamp,2021_Dec_23_1430,exp,2021.2.3,59.86269970627443,
left,go,1,0,1,0,4,3,27,0,573.2012338638306,None,1,0.549475908279419,573.2012338638306,None,573.8657610416412,None,574.8946969509125,575.2591068744659,574.8946969509125,575.2591068744659,573.8657610416412,None,573.8657610416412,None,573.8657610416412,None,1,True,401.0765552520752,679.7127723693848,left,576.8485460281372,None,-1,-1,pp_15,icub,clamp,2021_Dec_23_1430,exp,2021.2.3,59.86269970627443,
right,go,1,0,1,0,4,4,28,4,577.3555669784546,None,1,0.9259970188140869,577.3555669784546,None,578.3931109905243,None,579.3997869491577,579.7566449642181,579.3997869491577,579.7566449642181,578.3931109905243,None,578.3931109905243,None,578.3931109905243,None,1,True,563.0769729614258,735.7802391052246,right,581.5765550136566,None,-1,-1,pp_15,icub,clamp,2021_Dec_23_1430,exp,2021.2.3,59.86269970627443,
right,go,1,0,1,0,4,5,29,3,582.0767488479614,None,1,0.6059300899505615,582.0767488479614,None,582.8033180236816,None,583.8211150169373,584.168534040451,583.8211150169373,584.168534040451,582.8033180236816,None,582.8033180236816,None,582.8033180236816,None,1,True,412.91093826293945,659.736156463623,right,585.761353969574,None,-1,-1,pp_15,icub,clamp,2021_Dec_23_1430,exp,2021.2.3,59.86269970627443,
right,stop,1,0,1,0,5,0,30,5,586.2826628684998,None,1,0.7348520755767822,586.2826628684998,None,587.1325199604034,None,588.1495170593262,588.5025708675385,588.1495170593262,588.5025708675385,587.1325199604034,None,587.1325199604034,None,587.1325199604034,None,0,True,420.4246997833252,670.3863143920898,right,590.1214349269867,None,600,550,pp_15,icub,clamp,2021_Dec_23_1430,exp,2021.2.3,59.86269970627443,
left,go,1,0,1,0,5,1,31,1,590.6242530345917,None,1,0.612375020980835,590.6242530345917,None,591.3524918556213,None,592.3793950080872,592.7288129329681,592.3793950080872,592.7288129329681,591.3524918556213,None,591.3524918556213,None,591.3524918556213,None,1,True,371.6423511505127,740.602970123291,left,594.376543045044,None,-1,-1,pp_15,icub,clamp,2021_Dec_23_1430,exp,2021.2.3,59.86269970627443,
right,stop,1,0,1,0,5,2,32,5,594.8912818431854,None,1,0.8404240608215332,594.8912818431854,None,595.8071749210358,None,596.8092310428619,597.1584939956665,596.8092310428619,597.1584939956665,595.8071749210358,None,595.8071749210358,None,595.8071749210358,None,0,False,-1.0,-1.0,-1,597.6503088474274,None,,,pp_15,icub,clamp,2021_Dec_23_1430,exp,2021.2.3,59.86269970627443,
left,stop,1,0,1,0,5,3,33,2,598.1433310508728,None,1,0.9049389362335205,598.1433310508728,None,599.1875929832458,None,600.1735620498657,600.5301668643951,600.1735620498657,600.5301668643951,599.1875929832458,None,599.1875929832458,None,599.1875929832458,None,0,True,411.90028190612793,706.0682773590088,left,602.1711540222168,None,600,500,pp_15,icub,clamp,2021_Dec_23_1430,exp,2021.2.3,59.86269970627443,
left,stop,1,0,1,0,5,4,34,2,602.6814839839935,None,1,0.694504976272583,602.6814839839935,None,603.4753260612488,None,604.4986200332642,604.8434648513794,604.4986200332642,604.8434648513794,603.4753260612488,None,603.4753260612488,None,603.4753260612488,None,1,True,245.5594539642334,-1.0,-1,608.6079368591309,None,550,500,pp_15,icub,clamp,2021_Dec_23_1430,exp,2021.2.3,59.86269970627443,
left,stop,1,0,1,0,5,5,35,2,609.1033160686493,None,1,0.274183988571167,609.1033160686493,None,609.4683120250702,None,610.445522069931,610.7742578983307,610.445522069931,610.7742578983307,609.4683120250702,None,609.4683120250702,None,609.4683120250702,None,1,True,341.874361038208,-1.0,-1,614.7030010223389,None,600,500,pp_15,icub,clamp,2021_Dec_23_1430,exp,2021.2.3,59.86269970627443,
right,go,1,0,1,0,6,0,36,4,615.2349438667297,None,1,0.30149388313293457,615.2349438667297,None,615.6633770465851,None,616.6341400146484,616.9863018989563,616.6341400146484,616.9863018989563,615.6633770465851,None,615.6633770465851,None,615.6633770465851,None,1,True,390.83003997802734,774.8544216156006,right,618.7031319141388,None,-1,-1,pp_15,icub,clamp,2021_Dec_23_1430,exp,2021.2.3,59.86269970627443,
left,go,1,0,1,0,6,1,37,1,619.2084579467773,None,1,0.603503942489624,619.2084579467773,None,619.9302659034729,None,620.9446370601654,621.3052599430084,620.9446370601654,621.3052599430084,619.9302659034729,None,619.9302659034729,None,619.9302659034729,None,1,True,366.3978576660156,776.9663333892822,left,622.9704949855804,None,-1,-1,pp_15,icub,clamp,2021_Dec_23_1430,exp,2021.2.3,59.86269970627443,
left,go,1,0,1,0,6,2,38,0,623.4821338653564,None,1,0.675044059753418,623.4821338653564,None,624.2723948955536,None,625.2886199951172,625.613970041275,625.2886199951172,625.613970041275,624.2723948955536,None,624.2723948955536,None,624.2723948955536,None,1,True,321.8951225280762,845.1342582702637,left,627.3131489753723,None,-1,-1,pp_15,icub,clamp,2021_Dec_23_1430,exp,2021.2.3,59.86269970627443,
right,go,1,0,1,0,6,3,39,3,627.8116769790649,None,1,0.7004070281982422,627.8116769790649,None,628.5946779251099,None,629.618763923645,629.976245880127,629.618763923645,629.976245880127,628.5946779251099,None,628.5946779251099,None,628.5946779251099,None,1,True,406.8126678466797,680.988073348999,right,631.5860810279846,None,-1,-1,pp_15,icub,clamp,2021_Dec_23_1430,exp,2021.2.3,59.86269970627443,
left,stop,1,0,1,0,6,4,40,2,632.1070098876953,None,1,0.8304259777069092,632.1070098876953,None,633.0228788852692,None,634.0157840251923,634.376405954361,634.0157840251923,634.376405954361,633.0228788852692,None,633.0228788852692,None,633.0228788852692,None,0,True,474.87878799438477,775.0308513641357,left,636.1552379131317,None,650,500,pp_15,icub,clamp,2021_Dec_23_1430,exp,2021.2.3,59.86269970627443,
left,go,1,0,1,0,6,5,41,0,636.6727569103241,None,1,0.6294260025024414,636.6727569103241,None,637.4035868644714,None,638.4070019721985,638.7422339916229,638.4070019721985,638.7422339916229,637.4035868644714,None,637.4035868644714,None,637.4035868644714,None,1,True,421.21076583862305,943.5675144195557,left,640.6844298839569,None,-1,-1,pp_15,icub,clamp,2021_Dec_23_1430,exp,2021.2.3,59.86269970627443,
left,stop,1,0,1,0,7,0,42,2,641.1809258460999,None,1,0.6918540000915527,641.1809258460999,None,641.9733588695526,None,642.9757769107819,643.3136579990387,642.9757769107819,643.3136579990387,641.9733588695526,None,641.9733588695526,None,641.9733588695526,None,1,True,363.2080554962158,-1.0,-1,647.2445249557495,None,600,500,pp_15,icub,clamp,2021_Dec_23_1430,exp,2021.2.3,59.86269970627443,
right,go,1,0,1,0,7,1,43,4,647.7768330574036,None,1,0.2095479965209961,647.7768330574036,None,648.0783979892731,None,649.0899019241333,649.440290927887,649.0899019241333,649.440290927887,648.0783979892731,None,648.0783979892731,None,648.0783979892731,None,1,True,350.7401943206787,828.5238742828369,right,651.1494719982147,None,-1,-1,pp_15,icub,clamp,2021_Dec_23_1430,exp,2021.2.3,59.86269970627443,
left,go,1,0,1,0,7,2,44,1,651.6854269504547,None,1,0.6295621395111084,651.6854269504547,None,652.4158928394318,None,653.4389250278473,653.793212890625,653.4389250278473,653.793212890625,652.4158928394318,None,652.4158928394318,None,652.4158928394318,None,1,True,345.34454345703125,790.5290126800537,left,655.4515180587769,None,-1,-1,pp_15,icub,clamp,2021_Dec_23_1430,exp,2021.2.3,59.86269970627443,
left,go,1,0,1,0,7,3,45,0,655.9623379707336,None,1,0.7785978317260742,655.9623379707336,None,656.816400051117,None,657.8281919956207,658.1832580566406,657.8281919956207,658.1832580566406,656.816400051117,None,656.816400051117,None,656.816400051117,None,1,True,358.3052158355713,792.3567295074463,left,659.8644678592682,None,-1,-1,pp_15,icub,clamp,2021_Dec_23_1430,exp,2021.2.3,59.86269970627443,
left,go,1,0,1,0,7,4,46,1,660.376405954361,None,1,0.598459005355835,660.376405954361,None,661.1030058860779,None,662.1028950214386,662.450033903122,662.1028950214386,662.450033903122,661.1030058860779,None,661.1030058860779,None,661.1030058860779,None,1,True,379.1384696960449,721.2979793548584,left,664.0842659473419,None,-1,-1,pp_15,icub,clamp,2021_Dec_23_1430,exp,2021.2.3,59.86269970627443,
left,go,1,0,1,0,7,5,47,0,664.5870418548584,None,1,0.8558640480041504,664.5870418548584,None,665.5637259483337,None,666.5649209022522,666.9170548915863,666.5649209022522,666.9170548915863,665.5637259483337,None,665.5637259483337,None,665.5637259483337,None,1,True,380.04326820373535,906.6805839538574,left,668.7365939617157,None,-1,-1,pp_15,icub,clamp,2021_Dec_23_1430,exp,2021.2.3,59.86269970627443,
left,go,1,0,1,0,8,0,48,1,669.2462079524994,None,1,0.7659380435943604,669.2462079524994,None,670.1028649806976,None,671.1126570701599,671.4681348800659,671.1126570701599,671.4681348800659,670.1028649806976,None,670.1028649806976,None,670.1028649806976,None,1,True,379.4980049133301,871.5875148773193,left,673.2543070316315,None,-1,-1,pp_15,icub,clamp,2021_Dec_23_1430,exp,2021.2.3,59.86269970627443,
right,go,1,0,1,0,8,1,49,3,673.7649838924408,None,1,0.8286819458007812,673.7649838924408,None,674.6791749000549,None,675.6838848590851,676.0462520122528,675.6838848590851,676.0462520122528,674.6791749000549,None,674.6791749000549,None,674.6791749000549,None,1,True,620.4209327697754,661.3414287567139,right,677.8593769073486,None,-1,-1,pp_15,icub,clamp,2021_Dec_23_1430,exp,2021.2.3,59.86269970627443,
left,stop,1,0,1,0,8,2,50,2,678.3716750144958,None,1,0.5983831882476807,678.3716750144958,None,679.0974259376526,None,680.1274349689484,680.4830689430237,680.1274349689484,680.4830689430237,679.0974259376526,None,679.0974259376526,None,679.0974259376526,None,1,True,319.02575492858887,-1.0,-1,684.328675031662,None,650,500,pp_15,icub,clamp,2021_Dec_23_1430,exp,2021.2.3,59.86269970627443,
right,go,1,0,1,0,8,3,51,4,684.8609130382538,None,1,0.38857316970825195,684.8609130382538,None,685.3501369953156,None,686.3176739215851,686.6764359474182,686.3176739215851,686.6764359474182,685.3501369953156,None,685.3501369953156,None,685.3501369953156,None,1,True,342.75364875793457,867.9084777832031,right,688.4559879302979,None,-1,-1,pp_15,icub,clamp,2021_Dec_23_1430,exp,2021.2.3,59.86269970627443,
left,go,1,0,1,0,8,4,52,0,688.958587884903,None,1,0.8294680118560791,688.958587884903,None,689.8734209537506,None,690.9063050746918,691.2550458908081,690.9063050746918,691.2550458908081,689.8734209537506,None,689.8734209537506,None,689.8734209537506,None,1,True,457.9901695251465,821.2950229644775,left,693.0567078590393,None,-1,-1,pp_15,icub,clamp,2021_Dec_23_1430,exp,2021.2.3,59.86269970627443,
right,go,1,0,1,0,8,5,53,3,693.5695240497589,None,1,0.7407629489898682,693.5695240497589,None,694.4223489761353,None,695.4329249858856,695.7899580001831,695.4329249858856,695.7899580001831,694.4223489761353,None,694.4223489761353,None,694.4223489761353,None,1,True,583.9006900787354,634.4232559204102,right,697.5388269424438,None,-1,-1,pp_15,icub,clamp,2021_Dec_23_1430,exp,2021.2.3,59.86269970627443,
right,go,1,0,1,0,9,0,54,4,698.0406138896942,None,1,0.7951428890228271,698.0406138896942,None,698.9542908668518,None,699.9892370700836,700.3419618606567,699.9892370700836,700.3419618606567,698.9542908668518,None,698.9542908668518,None,698.9542908668518,None,1,True,368.17121505737305,852.5702953338623,right,702.0790369510651,None,-1,-1,pp_15,icub,clamp,2021_Dec_23_1430,exp,2021.2.3,59.86269970627443,
right,stop,1,0,1,0,9,1,55,5,702.6066188812256,None,1,0.7082860469818115,702.6066188812256,None,703.4384279251099,None,704.442724943161,704.7945330142975,704.442724943161,704.7945330142975,703.4384279251099,None,703.4384279251099,None,703.4384279251099,None,0,True,338.52362632751465,783.031702041626,right,706.4394309520721,None,700,500,pp_15,icub,clamp,2021_Dec_23_1430,exp,2021.2.3,59.86269970627443,
right,go,1,0,1,0,9,2,56,3,706.9539239406586,None,1,0.6538300514221191,706.9539239406586,None,707.7410619258881,None,708.7667858600616,709.1220510005951,708.7667858600616,709.1220510005951,707.7410619258881,None,707.7410619258881,None,707.7410619258881,None,1,True,377.0403861999512,684.6199035644531,right,710.6893100738525,None,-1,-1,pp_15,icub,clamp,2021_Dec_23_1430,exp,2021.2.3,59.86269970627443,
right,go,1,0,1,0,9,3,57,4,711.191083908081,None,1,0.6414289474487305,711.191083908081,None,711.9183828830719,None,712.931843996048,713.2851839065552,712.931843996048,713.2851839065552,711.9183828830719,None,711.9183828830719,None,711.9183828830719,None,1,True,472.49722480773926,731.1127185821533,right,715.0205960273743,None,-1,-1,pp_15,icub,clamp,2021_Dec_23_1430,exp,2021.2.3,59.86269970627443,
left,go,1,0,1,0,9,4,58,1,715.53373503685,None,1,0.5122640132904053,715.53373503685,None,716.136796951294,None,717.1432049274445,717.5046150684357,717.1432049274445,717.5046150684357,716.136796951294,None,716.136796951294,None,716.136796951294,None,1,True,423.2614040374756,830.3532600402832,left,719.2766449451447,None,-1,-1,pp_15,icub,clamp,2021_Dec_23_1430,exp,2021.2.3,59.86269970627443,
left,stop,1,0,1,0,9,5,59,2,719.7937798500061,None,1,0.6363489627838135,719.7937798500061,None,720.5205290317535,None,721.5128779411316,721.8618099689484,721.5128779411316,721.8618099689484,720.5205290317535,None,720.5205290317535,None,720.5205290317535,None,0,True,339.94340896606445,940.7861232757568,left,723.708065032959,None,700,450,pp_15,icub,clamp,2021_Dec_23_1430,exp,2021.2.3,59.86269970627443,
left,go,1,0,1,0,10,0,60,0,724.2147469520569,None,1,0.8574099540710449,724.2147469520569,None,725.1917679309845,None,726.2185750007629,726.5716209411621,726.2185750007629,726.5716209411621,725.1917679309845,None,725.1917679309845,None,725.1917679309845,None,1,True,404.37793731689453,931.964635848999,left,728.4278998374939,None,-1,-1,pp_15,icub,clamp,2021_Dec_23_1430,exp,2021.2.3,59.86269970627443,
right,go,1,0,1,0,10,1,61,4,728.9253208637238,None,1,0.8257110118865967,728.9253208637238,None,729.8418040275574,None,730.8435399532318,731.1994540691376,730.8435399532318,731.1994540691376,729.8418040275574,None,729.8418040275574,None,729.8418040275574,None,1,True,365.91029167175293,811.690092086792,right,732.9045300483704,None,-1,-1,pp_15,icub,clamp,2021_Dec_23_1430,exp,2021.2.3,59.86269970627443,
right,go,1,0,1,0,10,2,62,3,733.4394090175629,None,1,0.6496901512145996,733.4394090175629,None,734.166895866394,None,735.1875500679016,735.5434219837189,735.1875500679016,735.5434219837189,734.166895866394,None,734.166895866394,None,734.166895866394,None,1,True,332.9122066497803,671.703577041626,right,737.0784258842468,None,-1,-1,pp_15,icub,clamp,2021_Dec_23_1430,exp,2021.2.3,59.86269970627443,
right,go,1,0,1,0,10,3,63,3,737.5827958583832,None,1,0.7091989517211914,737.5827958583832,None,738.3726279735565,None,739.3769040107727,739.7267808914185,739.3769040107727,739.7267808914185,738.3726279735565,None,738.3726279735565,None,738.3726279735565,None,1,True,407.81450271606445,718.4746265411377,right,741.3855850696564,None,-1,-1,pp_15,icub,clamp,2021_Dec_23_1430,exp,2021.2.3,59.86269970627443,
left,go,1,0,1,0,10,4,64,1,741.9025859832764,None,1,0.774177074432373,741.9025859832764,None,742.7565670013428,None,743.7604939937592,744.1238889694214,743.7604939937592,744.1238889694214,742.7565670013428,None,742.7565670013428,None,742.7565670013428,None,1,True,294.0182685852051,736.3178730010986,left,745.6888539791107,None,-1,-1,pp_15,icub,clamp,2021_Dec_23_1430,exp,2021.2.3,59.86269970627443,
left,go,1,0,1,0,10,5,65,0,746.2241449356079,None,1,0.7730929851531982,746.2241449356079,None,747.0775480270386,None,748.102208852768,748.4646790027618,748.102208852768,748.4646790027618,747.0775480270386,None,747.0775480270386,None,747.0775480270386,None,1,True,638.6432647705078,763.8134956359863,left,750.3516209125519,None,-1,-1,pp_15,icub,clamp,2021_Dec_23_1430,exp,2021.2.3,59.86269970627443,
left,go,1,0,1,0,11,0,66,1,750.8682770729065,None,1,0.8006401062011719,750.8682770729065,None,751.7786300182343,None,752.8138148784637,753.1833338737488,752.8138148784637,753.1833338737488,751.7786300182343,None,751.7786300182343,None,751.7786300182343,None,0,False,3000.473976135254,-1.0,-1,756.6799409389496,None,,,pp_15,icub,clamp,2021_Dec_23_1430,exp,2021.2.3,59.86269970627443,
left,go,1,0,1,0,11,1,67,0,757.1746039390564,None,1,0.31746387481689453,757.1746039390564,None,757.5917110443115,None,758.6023359298706,758.9658238887787,758.6023359298706,758.9658238887787,757.5917110443115,None,757.5917110443115,None,757.5917110443115,None,1,True,353.6522388458252,856.1952114105225,left,760.7097959518433,None,-1,-1,pp_15,icub,clamp,2021_Dec_23_1430,exp,2021.2.3,59.86269970627443,
left,stop,1,0,1,0,11,2,68,2,761.2375299930573,None,1,0.888808012008667,761.2375299930573,None,762.2169890403748,None,763.2372229099274,763.5693640708923,763.2372229099274,763.5693640708923,762.2169890403748,None,762.2169890403748,None,762.2169890403748,None,1,True,401.8545150756836,-1.0,-1,767.5236060619354,None,650,450,pp_15,icub,clamp,2021_Dec_23_1430,exp,2021.2.3,59.86269970627443,
right,go,1,0,1,0,11,3,69,3,768.0573210716248,None,1,0.408189058303833,768.0573210716248,None,768.5460720062256,None,769.5215158462524,769.8750410079956,769.5215158462524,769.8750410079956,768.5460720062256,None,768.5460720062256,None,768.5460720062256,None,1,True,526.5383720397949,664.1979217529297,right,771.5995049476624,None,-1,-1,pp_15,icub,clamp,2021_Dec_23_1430,exp,2021.2.3,59.86269970627443,
left,go,1,0,1,0,11,4,70,1,772.1168789863586,None,1,0.6301732063293457,772.1168789863586,None,772.8475940227509,None,773.8449499607086,774.2010769844055,773.8449499607086,774.2010769844055,772.8475940227509,None,772.8475940227509,None,772.8475940227509,None,1,True,305.6943416595459,812.0038509368896,left,775.8433818817139,None,-1,-1,pp_15,icub,clamp,2021_Dec_23_1430,exp,2021.2.3,59.86269970627443,
right,stop,1,0,1,0,11,5,71,5,776.377021074295,None,1,0.7909200191497803,776.377021074295,None,777.2914588451385,None,778.3055369853973,778.6585969924927,778.3055369853973,778.6585969924927,777.2914588451385,None,777.2914588451385,None,777.2914588451385,None,1,True,369.0323829650879,-1.0,-1,782.5345468521118,None,700,450,pp_15,icub,clamp,2021_Dec_23_1430,exp,2021.2.3,59.86269970627443,
right,go,1,0,1,0,12,0,72,3,783.0655338764191,None,1,0.25997400283813477,783.0655338764191,None,783.4298830032349,None,784.4145739078522,784.7493159770966,784.4145739078522,784.7493159770966,783.4298830032349,None,783.4298830032349,None,783.4298830032349,None,1,True,420.3977584838867,800.7125854492188,right,786.5458710193634,None,-1,-1,pp_15,icub,clamp,2021_Dec_23_1430,exp,2021.2.3,59.86269970627443,
right,go,1,0,1,0,12,1,73,4,787.0744018554688,None,1,0.6906230449676514,787.0744018554688,None,787.8661470413208,None,788.8803169727325,789.2481038570404,788.8803169727325,789.2481038570404,787.8661470413208,None,787.8661470413208,None,787.8661470413208,None,1,True,343.66536140441895,782.5117111206055,right,790.8651149272919,None,-1,-1,pp_15,icub,clamp,2021_Dec_23_1430,exp,2021.2.3,59.86269970627443,
right,stop,1,0,1,0,12,2,74,5,791.3681218624115,None,1,0.8566770553588867,791.3681218624115,None,792.3437168598175,None,793.3435809612274,793.7061669826508,793.3435809612274,793.7061669826508,792.3437168598175,None,792.3437168598175,None,792.3437168598175,None,0,True,447.6644992828369,718.0302143096924,right,795.3996870517731,None,700,500,pp_15,icub,clamp,2021_Dec_23_1430,exp,2021.2.3,59.86269970627443,
right,go,1,0,1,0,12,3,75,4,795.907252073288,None,1,0.5828468799591064,795.907252073288,None,796.5756869316101,None,797.5676329135895,797.9160099029541,797.5676329135895,797.9160099029541,796.5756869316101,None,796.5756869316101,None,796.5756869316101,None,1,True,347.2256660461426,800.6021976470947,right,799.6305799484253,None,-1,-1,pp_15,icub,clamp,2021_Dec_23_1430,exp,2021.2.3,59.86269970627443,
left,go,1,0,1,0,12,4,76,1,800.1450779438019,None,1,0.7718591690063477,800.1450779438019,None,800.997456073761,None,802.015212059021,802.3720269203186,802.015212059021,802.3720269203186,800.997456073761,None,800.997456073761,None,800.997456073761,None,1,True,387.90011405944824,836.8649482727051,left,804.1146440505981,None,-1,-1,pp_15,icub,clamp,2021_Dec_23_1430,exp,2021.2.3,59.86269970627443,
right,stop,1,0,1,0,12,5,77,5,804.6325218677521,None,1,0.7974948883056641,804.6325218677521,None,805.5450930595398,None,806.5590929985046,806.8833758831024,806.5590929985046,806.8833758831024,805.5450930595398,None,805.5450930595398,None,805.5450930595398,None,0,True,406.71586990356445,670.4301834106445,right,808.5264439582825,None,700,450,pp_15,icub,clamp,2021_Dec_23_1430,exp,2021.2.3,59.86269970627443,
right,go,2,0,2,0,0,0,0,3,822.4724960327148,None,1,8.169528007507324,822.4724960327148,None,830.7277829647064,None,831.75292801857,832.115690946579,831.75292801857,832.115690946579,830.7277829647064,None,830.7277829647064,None,830.7277829647064,None,1,True,582.3366641998291,813.3163452148438,right,834.0078139305115,None,-1,-1,pp_15,icub,clamp,2021_Dec_23_1430,exp,2021.2.3,59.86269970627443,
left,go,2,0,2,0,0,1,1,0,834.511745929718,None,1,0.7734990119934082,834.511745929718,None,835.365583896637,None,836.3820049762726,836.7556788921356,836.3820049762726,836.7556788921356,835.365583896637,None,835.365583896637,None,835.365583896637,None,1,True,397.9809284210205,782.3545932769775,left,838.4265689849854,None,-1,-1,pp_15,icub,clamp,2021_Dec_23_1430,exp,2021.2.3,59.86269970627443,
right,go,2,0,2,0,0,2,2,3,838.943619966507,None,1,0.7113628387451172,838.943619966507,None,839.735328912735,None,840.7457149028778,841.0870418548584,840.7457149028778,841.0870418548584,839.735328912735,None,839.735328912735,None,839.735328912735,None,1,True,454.0600776672363,690.1297569274902,right,842.7635328769684,None,-1,-1,pp_15,icub,clamp,2021_Dec_23_1430,exp,2021.2.3,59.86269970627443,
right,stop,2,0,2,0,0,3,3,5,843.2669630050659,None,1,0.6879260540008545,843.2669630050659,None,844.0556168556213,None,845.0749359130859,845.4217360019684,845.0749359130859,845.4217360019684,844.0556168556213,None,844.0556168556213,None,844.0556168556213,None,1,True,234.07649993896484,-1.0,-1,849.1793689727783,None,700,400,pp_15,icub,clamp,2021_Dec_23_1430,exp,2021.2.3,59.86269970627443,
right,stop,2,0,2,0,0,4,4,5,849.7107310295105,None,1,0.2693641185760498,849.7107310295105,None,850.0772960186005,None,851.0693688392639,851.4236559867859,851.0693688392639,851.4236559867859,850.0772960186005,None,850.0772960186005,None,850.0772960186005,None,1,True,399.5075225830078,-1.0,-1,855.3548860549927,None,700,450,pp_15,icub,clamp,2021_Dec_23_1430,exp,2021.2.3,59.86269970627443,
right,stop,2,0,2,0,0,5,5,5,855.8865759372711,None,1,0.1462409496307373,855.8865759372711,None,856.1285028457642,None,857.1346218585968,857.4942629337311,857.1346218585968,857.4942629337311,856.1285028457642,None,856.1285028457642,None,856.1285028457642,None,1,True,350.0704765319824,-1.0,-1,861.3588800430298,None,700,500,pp_15,icub,clamp,2021_Dec_23_1430,exp,2021.2.3,59.86269970627443,
left,go,2,0,2,0,1,0,6,1,861.8927459716797,None,1,0.277921199798584,861.8927459716797,None,862.2583780288696,None,863.2385799884796,863.6113269329071,863.2385799884796,863.6113269329071,862.2583780288696,None,862.2583780288696,None,862.2583780288696,None,1,True,374.70197677612305,849.2045402526855,left,865.3706910610199,None,-1,-1,pp_15,icub,clamp,2021_Dec_23_1430,exp,2021.2.3,59.86269970627443,
right,stop,2,0,2,0,1,1,7,5,865.8799118995667,None,1,0.6551730632781982,865.8799118995667,None,866.610741853714,None,867.6354138851166,867.9879128932953,867.6354138851166,867.9879128932953,866.610741853714,None,866.610741853714,None,866.610741853714,None,0,True,476.8087863922119,744.5240020751953,right,869.7058839797974,None,700,550,pp_15,icub,clamp,2021_Dec_23_1430,exp,2021.2.3,59.86269970627443,
left,go,2,0,2,0,1,2,8,0,870.2182619571686,None,1,0.5307760238647461,870.2182619571686,None,870.8244948387146,None,871.8382668495178,872.1837539672852,871.8382668495178,872.1837539672852,870.8244948387146,None,870.8244948387146,None,870.8244948387146,None,1,True,325.9904384613037,855.7941913604736,left,873.8910329341888,None,-1,-1,pp_15,icub,clamp,2021_Dec_23_1430,exp,2021.2.3,59.86269970627443,
right,go,2,0,2,0,1,3,9,3,874.4121639728546,None,1,0.5510861873626709,874.4121639728546,None,875.0775010585785,None,876.0769519805908,876.4453139305115,876.0769519805908,876.4453139305115,875.0775010585785,None,875.0775010585785,None,875.0775010585785,None,1,True,400.2528190612793,775.2029895782471,right,878.1530129909515,None,-1,-1,pp_15,icub,clamp,2021_Dec_23_1430,exp,2021.2.3,59.86269970627443,
right,go,2,0,2,0,1,4,10,4,878.6500589847565,None,1,0.5869729518890381,878.6500589847565,None,879.3699929714203,None,880.3961410522461,880.7585229873657,880.3961410522461,880.7585229873657,879.3699929714203,None,879.3699929714203,None,879.3699929714203,None,1,True,446.5141296386719,790.691614151001,right,882.5188798904419,None,-1,-1,pp_15,icub,clamp,2021_Dec_23_1430,exp,2021.2.3,59.86269970627443,
left,go,2,0,2,0,1,5,11,0,883.0328269004822,None,1,0.6578540802001953,883.0328269004822,None,883.8193318843842,None,884.8144040107727,885.1689779758453,884.8144040107727,885.1689779758453,883.8193318843842,None,883.8193318843842,None,883.8193318843842,None,1,True,383.09407234191895,798.0704307556152,left,886.8794620037079,None,-1,-1,pp_15,icub,clamp,2021_Dec_23_1430,exp,2021.2.3,59.86269970627443,
left,stop,2,0,2,0,2,0,12,2,887.4106299877167,None,1,0.4814870357513428,887.4106299877167,None,888.0156469345093,None,889.0173559188843,889.3745250701904,889.0173559188843,889.3745250701904,888.0156469345093,None,888.0156469345093,None,888.0156469345093,None,0,True,341.508150100708,747.5790977478027,left,891.00008893013,None,700,500,pp_15,icub,clamp,2021_Dec_23_1430,exp,2021.2.3,59.86269970627443,
right,stop,2,0,2,0,2,1,13,5,891.5198030471802,None,1,0.6987361907958984,891.5198030471802,None,892.3040180206299,None,893.3102428913116,893.6679420471191,893.3102428913116,893.6679420471191,892.3040180206299,None,892.3040180206299,None,892.3040180206299,None,0,True,470.4411029815674,661.6520881652832,right,895.3147950172424,None,650,500,pp_15,icub,clamp,2021_Dec_23_1430,exp,2021.2.3,59.86269970627443,
right,go,2,0,2,0,2,2,14,4,895.8272109031677,None,1,0.5856389999389648,895.8272109031677,None,896.4985220432281,None,897.4787039756775,897.8045198917389,897.4787039756775,897.8045198917389,896.4985220432281,None,896.4985220432281,None,896.4985220432281,None,1,True,474.7328758239746,806.1730861663818,right,899.6558909416199,None,-1,-1,pp_15,icub,clamp,2021_Dec_23_1430,exp,2021.2.3,59.86269970627443,
left,stop,2,0,2,0,2,3,15,2,900.1740219593048,None,1,0.6793818473815918,900.1740219593048,None,900.9632458686829,None,901.9581038951874,902.2985479831696,901.9581038951874,902.2985479831696,900.9632458686829,None,900.9632458686829,None,900.9632458686829,None,0,True,492.52820014953613,749.969482421875,left,904.1037929058075,None,650,450,pp_15,icub,clamp,2021_Dec_23_1430,exp,2021.2.3,59.86269970627443,
right,go,2,0,2,0,2,4,16,4,904.6050009727478,None,1,0.695004940032959,904.6050009727478,None,905.415314912796,None,906.4181559085846,906.7736179828644,906.4181559085846,906.7736179828644,905.415314912796,None,905.415314912796,None,905.415314912796,None,1,True,651.1714458465576,690.9971237182617,right,908.6448378562927,None,-1,-1,pp_15,icub,clamp,2021_Dec_23_1430,exp,2021.2.3,59.86269970627443,
right,stop,2,0,2,0,2,5,17,5,909.1609590053558,None,1,0.5670948028564453,909.1609590053558,None,909.827780008316,None,910.8322470188141,911.1897089481354,910.8322470188141,911.1897089481354,909.827780008316,None,909.827780008316,None,909.827780008316,None,1,True,340.806245803833,-1.0,-1,915.0526728630066,None,600,450,pp_15,icub,clamp,2021_Dec_23_1430,exp,2021.2.3,59.86269970627443,
right,stop,2,0,2,0,3,0,18,5,915.5851230621338,None,1,0.333712100982666,915.5851230621338,None,916.011885881424,None,916.9897789955139,917.3446569442749,916.9897789955139,917.3446569442749,916.011885881424,None,916.011885881424,None,916.011885881424,None,1,True,364.1185760498047,-1.0,-1,921.2746069431305,None,600,500,pp_15,icub,clamp,2021_Dec_23_1430,exp,2021.2.3,59.86269970627443,
left,go,2,0,2,0,3,1,19,1,921.8061718940735,None,1,0.21157288551330566,921.8061718940735,None,922.110044002533,None,923.0985128879547,923.4584279060364,923.0985128879547,923.4584279060364,922.110044002533,None,922.110044002533,None,922.110044002533,None,1,True,356.60338401794434,887.0811462402344,left,925.2178318500519,None,-1,-1,pp_15,icub,clamp,2021_Dec_23_1430,exp,2021.2.3,59.86269970627443,
right,go,2,0,2,0,3,2,20,4,925.7217938899994,None,1,0.6463348865509033,925.7217938899994,None,926.4486019611359,None,927.4826829433441,927.8554520606995,927.4826829433441,927.8554520606995,926.4486019611359,None,926.4486019611359,None,926.4486019611359,None,1,True,409.20448303222656,708.2498073577881,right,929.4617528915405,None,-1,-1,pp_15,icub,clamp,2021_Dec_23_1430,exp,2021.2.3,59.86269970627443,
left,go,2,0,2,0,3,3,21,1,929.9939298629761,None,1,0.5290379524230957,929.9939298629761,None,930.6553628444672,None,931.6658148765564,932.0206608772278,931.6658148765564,932.0206608772278,930.6553628444672,None,930.6553628444672,None,930.6553628444672,None,1,True,433.3231449127197,795.9284782409668,left,933.7805268764496,None,-1,-1,pp_15,icub,clamp,2021_Dec_23_1430,exp,2021.2.3,59.86269970627443,
right,stop,2,0,2,0,3,4,22,5,934.2962758541107,None,1,0.6546149253845215,934.2962758541107,None,935.0264570713043,None,936.0263679027557,936.3703010082245,936.0263679027557,936.3703010082245,935.0264570713043,None,935.0264570713043,None,935.0264570713043,None,1,True,383.0432891845703,-1.0,-1,940.2818520069122,None,600,550,pp_15,icub,clamp,2021_Dec_23_1430,exp,2021.2.3,59.86269970627443,
left,go,2,0,2,0,3,5,23,1,940.8139028549194,None,1,0.08777189254760742,940.8139028549194,None,940.993980884552,None,941.9677090644836,942.3048028945923,941.9677090644836,942.3048028945923,940.993980884552,None,940.993980884552,None,940.993980884552,None,1,True,318.7367916107178,873.9757537841797,left,944.08656001091,None,-1,-1,pp_15,icub,clamp,2021_Dec_23_1430,exp,2021.2.3,59.86269970627443,
left,stop,2,0,2,0,4,0,24,2,944.5878989696503,None,1,0.710284948348999,944.5878989696503,None,945.3788578510284,None,946.3817238807678,946.7056970596313,946.3817238807678,946.7056970596313,945.3788578510284,None,945.3788578510284,None,945.3788578510284,None,1,True,199.723482131958,-1.0,-1,950.467798948288,None,600,600,pp_15,icub,clamp,2021_Dec_23_1430,exp,2021.2.3,59.86269970627443,
right,stop,2,0,2,0,4,1,25,5,950.9988069534302,None,1,0.24089288711547852,950.9988069534302,None,951.363606929779,None,952.3427889347076,952.6930148601532,952.3427889347076,952.6930148601532,951.363606929779,None,951.363606929779,None,951.363606929779,None,1,True,266.7238712310791,-1.0,-1,956.5289440155029,None,650,600,pp_15,icub,clamp,2021_Dec_23_1430,exp,2021.2.3,59.86269970627443,
left,stop,2,0,2,0,4,2,26,2,957.063395023346,None,1,0.17228293418884277,957.063395023346,None,957.3659958839417,None,958.348445892334,958.7051689624786,958.348445892334,958.7051689624786,957.3659958839417,None,957.3659958839417,None,957.3659958839417,None,1,True,309.863805770874,-1.0,-1,962.5505859851837,None,650,650,pp_15,icub,clamp,2021_Dec_23_1430,exp,2021.2.3,59.86269970627443,
right,go,2,0,2,0,4,3,27,4,963.0838370323181,None,1,0.2848930358886719,963.0838370323181,None,963.4478168487549,None,964.4312028884888,964.7881529331207,964.4312028884888,964.7881529331207,963.4478168487549,None,963.4478168487549,None,963.4478168487549,None,1,True,385.2710723876953,800.952672958374,right,966.52406001091,None,-1,-1,pp_15,icub,clamp,2021_Dec_23_1430,exp,2021.2.3,59.86269970627443,
left,go,2,0,2,0,4,4,28,1,967.0415289402008,None,1,0.6526360511779785,967.0415289402008,None,967.8266589641571,None,968.8205139636993,969.16317486763,968.8205139636993,969.16317486763,967.8266589641571,None,967.8266589641571,None,967.8266589641571,None,1,True,544.4457530975342,753.976583480835,left,971.0184049606323,None,-1,-1,pp_15,icub,clamp,2021_Dec_23_1430,exp,2021.2.3,59.86269970627443,
left,go,2,0,2,0,4,5,29,0,971.53759598732,None,1,0.7239840030670166,971.53759598732,None,972.352217912674,None,973.3462278842926,973.7015719413757,973.3462278842926,973.7015719413757,972.352217912674,None,972.352217912674,None,972.352217912674,None,1,True,343.92738342285156,924.8511791229248,left,975.5011169910431,None,-1,-1,pp_15,icub,clamp,2021_Dec_23_1430,exp,2021.2.3,59.86269970627443,
left,go,2,0,2,0,5,0,30,1,976.0111029148102,None,1,0.6352369785308838,976.0111029148102,None,976.7367289066315,None,977.7710978984833,978.126874923706,977.7710978984833,978.126874923706,976.7367289066315,None,976.7367289066315,None,976.7367289066315,None,1,True,354.13169860839844,858.6890697479248,left,979.8257789611816,None,-1,-1,pp_15,icub,clamp,2021_Dec_23_1430,exp,2021.2.3,59.86269970627443,
left,go,2,0,2,0,5,1,31,0,980.3613660335541,None,1,0.6589219570159912,980.3613660335541,None,981.1500389575958,None,982.1765129566193,982.5356750488281,982.1765129566193,982.5356750488281,981.1500389575958,None,981.1500389575958,None,981.1500389575958,None,1,True,403.212308883667,725.9516716003418,left,984.1566140651703,None,-1,-1,pp_15,icub,clamp,2021_Dec_23_1430,exp,2021.2.3,59.86269970627443,
left,go,2,0,2,0,5,2,32,1,984.6753089427948,None,1,0.7141830921173096,984.6753089427948,None,985.4657728672028,None,986.4715049266815,986.7982339859009,986.4715049266815,986.7982339859009,985.4657728672028,None,985.4657728672028,None,985.4657728672028,None,1,True,419.51847076416016,791.797399520874,left,988.5637848377228,None,-1,-1,pp_15,icub,clamp,2021_Dec_23_1430,exp,2021.2.3,59.86269970627443,
left,go,2,0,2,0,5,3,33,0,989.069591999054,None,1,0.6536099910736084,989.069591999054,None,989.8566370010376,None,990.864415884018,991.1927528381348,990.864415884018,991.1927528381348,989.8566370010376,None,989.8566370010376,None,989.8566370010376,None,1,True,467.71740913391113,793.8406467437744,left,993.0236730575562,None,-1,-1,pp_15,icub,clamp,2021_Dec_23_1430,exp,2021.2.3,59.86269970627443,
right,go,2,0,2,0,5,4,34,3,993.546247959137,None,1,0.6828620433807373,993.546247959137,None,994.3347909450531,None,995.3628389835358,995.702232837677,995.3628389835358,995.702232837677,994.3347909450531,None,994.3347909450531,None,994.3347909450531,None,1,True,430.6166172027588,735.2774143218994,right,997.4007439613342,None,-1,-1,pp_15,icub,clamp,2021_Dec_23_1430,exp,2021.2.3,59.86269970627443,
left,go,2,0,2,0,5,5,35,0,997.906975030899,None,1,0.7229459285736084,997.906975030899,None,998.7575290203094,None,999.7914409637451,1000.1439130306244,999.7914409637451,1000.1439130306244,998.7575290203094,None,998.7575290203094,None,998.7575290203094,None,1,True,352.31924057006836,801.5725612640381,left,1001.813551902771,None,-1,-1,pp_15,icub,clamp,2021_Dec_23_1430,exp,2021.2.3,59.86269970627443,
left,go,2,0,2,0,6,0,36,1,1002.3340590000153,None,1,0.6361629962921143,1002.3340590000153,None,1003.045825958252,None,1004.0610489845276,1004.4245300292969,1004.0610489845276,1004.4245300292969,1003.045825958252,None,1003.045825958252,None,1003.045825958252,None,1,True,413.7599468231201,868.812084197998,left,1006.2256610393524,None,-1,-1,pp_15,icub,clamp,2021_Dec_23_1430,exp,2021.2.3,59.86269970627443,
left,go,2,0,2,0,6,1,37,0,1006.7377200126648,None,1,0.7746570110321045,1006.7377200126648,None,1007.5911259651184,None,1008.6028180122375,1008.961324930191,1008.6028180122375,1008.961324930191,1007.5911259651184,None,1007.5911259651184,None,1007.5911259651184,None,1,True,301.1641502380371,879.0652751922607,left,1010.6732409000397,None,-1,-1,pp_15,icub,clamp,2021_Dec_23_1430,exp,2021.2.3,59.86269970627443,
right,go,2,0,2,0,6,2,38,4,1011.1892879009247,None,1,0.6382989883422852,1011.1892879009247,None,1011.9128880500793,None,1012.9173698425293,1013.2735030651093,1012.9173698425293,1013.2735030651093,1011.9128880500793,None,1011.9128880500793,None,1011.9128880500793,None,1,True,454.8335075378418,790.032148361206,right,1015.0456328392029,None,-1,-1,pp_15,icub,clamp,2021_Dec_23_1430,exp,2021.2.3,59.86269970627443,
left,stop,2,0,2,0,6,3,39,2,1015.554477930069,None,1,0.6557700634002686,1015.554477930069,None,1016.3435678482056,None,1017.3478448390961,1017.7033150196075,1017.3478448390961,1017.7033150196075,1016.3435678482056,None,1016.3435678482056,None,1016.3435678482056,None,0,True,441.00332260131836,890.7260894775391,left,1019.5748000144958,None,700,650,pp_15,icub,clamp,2021_Dec_23_1430,exp,2021.2.3,59.86269970627443,
right,stop,2,0,2,0,6,4,40,5,1020.0947208404541,None,1,0.6987369060516357,1020.0947208404541,None,1020.88396692276,None,1021.8956868648529,1022.2566978931427,1021.8956868648529,1022.2566978931427,1020.88396692276,None,1020.88396692276,None,1020.88396692276,None,0,True,407.4115753173828,724.0135669708252,right,1023.8954608440399,None,650,650,pp_15,icub,clamp,2021_Dec_23_1430,exp,2021.2.3,59.86269970627443,
left,stop,2,0,2,0,6,5,41,2,1024.4147880077362,None,1,0.6023237705230713,1024.4147880077362,None,1025.1305780410767,None,1026.135824918747,1026.501275062561,1026.135824918747,1026.501275062561,1025.1305780410767,None,1025.1305780410767,None,1025.1305780410767,None,0,True,465.11220932006836,704.7083377838135,left,1028.1965548992157,None,650,600,pp_15,icub,clamp,2021_Dec_23_1430,exp,2021.2.3,59.86269970627443,
right,go,2,0,2,0,7,0,42,4,1028.7165298461914,None,1,0.8105170726776123,1028.7165298461914,None,1029.6328840255737,None,1030.6424100399017,1030.99738407135,1030.6424100399017,1030.99738407135,1029.6328840255737,None,1029.6328840255737,None,1029.6328840255737,None,1,True,236.66620254516602,642.5364017486572,right,1032.4172308444977,None,-1,-1,pp_15,icub,clamp,2021_Dec_23_1430,exp,2021.2.3,59.86269970627443,
left,go,2,0,2,0,7,1,43,0,1032.943130016327,None,1,0.8045029640197754,1032.943130016327,None,1033.8566100597382,None,1034.8892769813538,1035.2433910369873,1034.8892769813538,1035.2433910369873,1033.8566100597382,None,1033.8566100597382,None,1033.8566100597382,None,1,True,431.88929557800293,761.9612216949463,left,1036.9239568710327,None,-1,-1,pp_15,icub,clamp,2021_Dec_23_1430,exp,2021.2.3,59.86269970627443,
left,go,2,0,2,0,7,2,44,1,1037.4446399211884,None,1,0.636976957321167,1037.4446399211884,None,1038.172446012497,None,1039.1813938617706,1039.504441022873,1039.1813938617706,1039.504441022873,1038.172446012497,None,1038.172446012497,None,1038.172446012497,None,1,True,402.20093727111816,769.9291706085205,left,1041.242756843567,None,-1,-1,pp_15,icub,clamp,2021_Dec_23_1430,exp,2021.2.3,59.86269970627443,
left,stop,2,0,2,0,7,3,45,2,1041.7592380046844,None,1,0.727977991104126,1041.7592380046844,None,1042.6071400642395,None,1043.6068880558014,1043.9732329845428,1043.6068880558014,1043.9732329845428,1042.6071400642395,None,1042.6071400642395,None,1042.6071400642395,None,1,True,387.7677917480469,-1.0,-1,1047.8927178382874,None,600,600,pp_15,icub,clamp,2021_Dec_23_1430,exp,2021.2.3,59.86269970627443,
right,stop,2,0,2,0,7,4,46,5,1048.4261720180511,None,1,0.46363186836242676,1048.4261720180511,None,1048.9780368804932,None,1049.9611608982086,1050.315768957138,1049.9611608982086,1050.315768957138,1048.9780368804932,None,1048.9780368804932,None,1048.9780368804932,None,0,True,332.6570987701416,764.2850875854492,right,1051.949961900711,None,650,600,pp_15,icub,clamp,2021_Dec_23_1430,exp,2021.2.3,59.86269970627443,
left,stop,2,0,2,0,7,5,47,2,1052.4584679603577,None,1,0.5566360950469971,1052.4584679603577,None,1053.1243879795074,None,1054.1427600383759,1054.4975409507751,1054.1427600383759,1054.4975409507751,1053.1243879795074,None,1053.1243879795074,None,1053.1243879795074,None,0,True,326.416015625,685.8310699462891,left,1056.0262079238892,None,650,550,pp_15,icub,clamp,2021_Dec_23_1430,exp,2021.2.3,59.86269970627443,
left,stop,2,0,2,0,8,0,48,2,1056.5458478927612,None,1,0.6103689670562744,1056.5458478927612,None,1057.2705669403076,None,1058.2769949436188,1058.614795923233,1058.2769949436188,1058.614795923233,1057.2705669403076,None,1057.2705669403076,None,1057.2705669403076,None,0,True,408.22577476501465,795.0801849365234,left,1060.3510689735413,None,600,550,pp_15,icub,clamp,2021_Dec_23_1430,exp,2021.2.3,59.86269970627443,
right,go,2,0,2,0,8,1,49,4,1060.8704578876495,None,1,0.8146719932556152,1060.8704578876495,None,1061.78564286232,None,1062.808070898056,1063.164967060089,1062.808070898056,1063.164967060089,1061.78564286232,None,1061.78564286232,None,1061.78564286232,None,1,True,445.28722763061523,813.9503002166748,right,1064.9607620239258,None,-1,-1,pp_15,icub,clamp,2021_Dec_23_1430,exp,2021.2.3,59.86269970627443,
right,go,2,0,2,0,8,2,50,3,1065.482677936554,None,1,0.6144580841064453,1065.482677936554,None,1066.2134778499603,None,1067.240159034729,1067.5877389907837,1067.240159034729,1067.5877389907837,1066.2134778499603,None,1066.2134778499603,None,1066.2134778499603,None,1,True,357.5785160064697,709.7644805908203,right,1069.1879329681396,None,-1,-1,pp_15,icub,clamp,2021_Dec_23_1430,exp,2021.2.3,59.86269970627443,
left,go,2,0,2,0,8,3,51,0,1069.7089190483093,None,1,0.5983970165252686,1069.7089190483093,None,1070.4353618621826,None,1071.437758922577,1071.8028230667114,1071.437758922577,1071.8028230667114,1070.4353618621826,None,1070.4353618621826,None,1070.4353618621826,None,1,True,472.19252586364746,762.9005908966064,left,1073.566298007965,None,-1,-1,pp_15,icub,clamp,2021_Dec_23_1430,exp,2021.2.3,59.86269970627443,
left,go,2,0,2,0,8,4,52,0,1074.0777158737183,None,1,0.6456339359283447,1074.0777158737183,None,1074.8088068962097,None,1075.8122019767761,1076.163470029831,1075.8122019767761,1076.163470029831,1074.8088068962097,None,1074.8088068962097,None,1074.8088068962097,None,1,True,329.4258117675781,876.8072128295898,left,1077.903077840805,None,-1,-1,pp_15,icub,clamp,2021_Dec_23_1430,exp,2021.2.3,59.86269970627443,
left,stop,2,0,2,0,8,5,53,2,1078.423033952713,None,1,0.9560890197753906,1078.423033952713,None,1079.4597840309143,None,1080.4766499996185,1080.8282279968262,1080.4766499996185,1080.8282279968262,1079.4597840309143,None,1079.4597840309143,None,1079.4597840309143,None,0,True,269.2410945892334,781.4133167266846,left,1082.4026460647583,None,550,550,pp_15,icub,clamp,2021_Dec_23_1430,exp,2021.2.3,59.86269970627443,
left,go,2,0,2,0,9,0,54,1,1082.9227459430695,None,1,0.5992670059204102,1082.9227459430695,None,1083.6505670547485,None,1084.6746098995209,1085.035127878189,1084.6746098995209,1085.035127878189,1083.6505670547485,None,1083.6505670547485,None,1083.6505670547485,None,1,True,652.0810127258301,730.6041717529297,left,1086.9135320186615,None,-1,-1,pp_15,icub,clamp,2021_Dec_23_1430,exp,2021.2.3,59.86269970627443,
left,go,2,0,2,0,9,1,55,1,1087.4186429977417,None,1,0.7664148807525635,1087.4186429977417,None,1088.270721912384,None,1089.303102016449,1089.6659359931946,1089.303102016449,1089.6659359931946,1088.270721912384,None,1088.270721912384,None,1088.270721912384,None,1,True,329.88429069519043,713.8545513153076,left,1091.1998090744019,None,-1,-1,pp_15,icub,clamp,2021_Dec_23_1430,exp,2021.2.3,59.86269970627443,
left,go,2,0,2,0,9,2,56,0,1091.7004849910736,None,1,0.8146841526031494,1091.7004849910736,None,1092.6139130592346,None,1093.636785030365,1093.994183063507,1093.636785030365,1093.994183063507,1092.6139130592346,None,1092.6139130592346,None,1092.6139130592346,None,1,True,240.18383026123047,889.9459838867188,left,1095.64772605896,None,-1,-1,pp_15,icub,clamp,2021_Dec_23_1430,exp,2021.2.3,59.86269970627443,
right,go,2,0,2,0,9,3,57,4,1096.1533658504486,None,1,0.884335994720459,1096.1533658504486,None,1097.1285259723663,None,1098.1379978656769,1098.4610579013824,1098.1379978656769,1098.4610579013824,1097.1285259723663,None,1097.1285259723663,None,1097.1285259723663,None,1,True,126.06072425842285,778.3172130584717,right,1099.9374558925629,None,-1,-1,pp_15,icub,clamp,2021_Dec_23_1430,exp,2021.2.3,59.86269970627443,
right,stop,2,0,2,0,9,4,58,5,1100.4415159225464,None,1,0.6559958457946777,1100.4415159225464,None,1101.1728558540344,None,1102.1712770462036,1102.5238180160522,1102.1712770462036,1102.5238180160522,1101.1728558540344,None,1101.1728558540344,None,1101.1728558540344,None,1,True,359.53688621520996,-1.0,-1,1106.415533065796,None,500,550,pp_15,icub,clamp,2021_Dec_23_1430,exp,2021.2.3,59.86269970627443,
left,stop,2,0,2,0,9,5,59,2,1106.9487838745117,None,1,0.24608802795410156,1106.9487838745117,None,1107.3131029605865,None,1108.2943348884583,1108.6251418590546,1108.2943348884583,1108.6251418590546,1107.3131029605865,None,1107.3131029605865,None,1107.3131029605865,None,1,True,203.15861701965332,-1.0,-1,1112.3979349136353,None,500,600,pp_15,icub,clamp,2021_Dec_23_1430,exp,2021.2.3,59.86269970627443,
right,go,2,0,2,0,10,0,60,3,1112.9293329715729,None,1,0.29059314727783203,1112.9293329715729,None,1113.356292963028,None,1114.335480928421,1114.6873219013214,1114.335480928421,1114.6873219013214,1113.356292963028,None,1113.356292963028,None,1113.356292963028,None,1,True,260.4379653930664,780.2832126617432,right,1116.3005459308624,None,-1,-1,pp_15,icub,clamp,2021_Dec_23_1430,exp,2021.2.3,59.86269970627443,
right,go,2,0,2,0,10,1,61,3,1116.8180289268494,None,1,0.6740188598632812,1116.8180289268494,None,1117.606407880783,None,1118.627660036087,1118.9799070358276,1118.627660036087,1118.9799070358276,1117.606407880783,None,1117.606407880783,None,1117.606407880783,None,1,True,439.06378746032715,786.0674858093262,right,1120.737387895584,None,-1,-1,pp_15,icub,clamp,2021_Dec_23_1430,exp,2021.2.3,59.86269970627443,
right,go,2,0,2,0,10,2,62,4,1121.2523019313812,None,1,0.6207828521728516,1121.2523019313812,None,1121.979707956314,None,1122.972090959549,1123.301038980484,1122.972090959549,1123.301038980484,1121.979707956314,None,1121.979707956314,None,1121.979707956314,None,1,True,392.3673629760742,740.4181957244873,right,1125.0094430446625,None,-1,-1,pp_15,icub,clamp,2021_Dec_23_1430,exp,2021.2.3,59.86269970627443,
left,go,2,0,2,0,10,3,63,1,1125.521229982376,None,1,0.8508789539337158,1125.521229982376,None,1126.4958100318909,None,1127.499981880188,1127.8494889736176,1127.499981880188,1127.8494889736176,1126.4958100318909,None,1126.4958100318909,None,1126.4958100318909,None,1,True,364.4728660583496,819.7460174560547,left,1129.5618588924408,None,-1,-1,pp_15,icub,clamp,2021_Dec_23_1430,exp,2021.2.3,59.86269970627443,
left,stop,2,0,2,0,10,4,64,2,1130.07004904747,None,1,0.7151470184326172,1130.07004904747,None,1130.917909860611,None,1131.92493891716,1132.2899680137634,1131.92493891716,1132.2899680137634,1130.917909860611,None,1130.917909860611,None,1130.917909860611,None,1,True,409.6651077270508,-1.0,-1,1136.2309110164642,None,550,600,pp_15,icub,clamp,2021_Dec_23_1430,exp,2021.2.3,59.86269970627443,
right,go,2,0,2,0,10,5,65,3,1136.7633788585663,None,1,0.3233788013458252,1136.7633788585663,None,1137.191176891327,None,1138.1722638607025,1138.5277650356293,1138.1722638607025,1138.5277650356293,1137.191176891327,None,1137.191176891327,None,1137.191176891327,None,1,True,419.93141174316406,830.0049304962158,right,1140.3111429214478,None,-1,-1,pp_15,icub,clamp,2021_Dec_23_1430,exp,2021.2.3,59.86269970627443,
right,go,2,0,2,0,11,0,66,4,1140.8470299243927,None,1,0.7171459197998047,1140.8470299243927,None,1141.6963109970093,None,1142.697278022766,1143.051400899887,1142.697278022766,1143.051400899887,1141.6963109970093,None,1141.6963109970093,None,1141.6963109970093,None,1,True,307.44433403015137,802.4938106536865,right,1144.6947989463806,None,-1,-1,pp_15,icub,clamp,2021_Dec_23_1430,exp,2021.2.3,59.86269970627443,
right,go,2,0,2,0,11,1,67,3,1145.2170810699463,None,1,0.7048749923706055,1145.2170810699463,None,1146.0076360702515,None,1147.0113668441772,1147.3624839782715,1147.0113668441772,1147.3624839782715,1146.0076360702515,None,1146.0076360702515,None,1146.0076360702515,None,1,True,265.9029960632324,906.9170951843262,right,1149.0848619937897,None,-1,-1,pp_15,icub,clamp,2021_Dec_23_1430,exp,2021.2.3,59.86269970627443,
right,go,2,0,2,0,11,2,68,3,1149.5930109024048,None,1,0.751248836517334,1149.5930109024048,None,1150.4473669528961,None,1151.4560899734497,1151.8135879039764,1151.4560899734497,1151.8135879039764,1150.4473669528961,None,1150.4473669528961,None,1150.4473669528961,None,1,True,436.02752685546875,788.7089252471924,right,1153.554888010025,None,-1,-1,pp_15,icub,clamp,2021_Dec_23_1430,exp,2021.2.3,59.86269970627443,
right,go,2,0,2,0,11,3,69,4,1154.0728750228882,None,1,0.6453640460968018,1154.0728750228882,None,1154.8037099838257,None,1155.8024060726166,1156.160975933075,1155.8024060726166,1156.160975933075,1154.8037099838257,None,1154.8037099838257,None,1154.8037099838257,None,1,True,443.9547061920166,785.5052947998047,right,1157.9218080043793,None,-1,-1,pp_15,icub,clamp,2021_Dec_23_1430,exp,2021.2.3,59.86269970627443,
left,go,2,0,2,0,11,4,70,1,1158.4299290180206,None,1,0.659430980682373,1158.4299290180206,None,1159.216868877411,None,1160.2296299934387,1160.5853378772736,1160.2296299934387,1160.5853378772736,1159.216868877411,None,1159.216868877411,None,1159.216868877411,None,1,True,394.7303295135498,799.1807460784912,left,1162.310975074768,None,-1,-1,pp_15,icub,clamp,2021_Dec_23_1430,exp,2021.2.3,59.86269970627443,
right,go,2,0,2,0,11,5,71,4,1162.829962015152,None,1,0.6435451507568359,1162.829962015152,None,1163.559226989746,None,1164.5739350318909,1164.9280030727386,1164.5739350318909,1164.9280030727386,1163.559226989746,None,1163.559226989746,None,1163.559226989746,None,1,True,482.5410842895508,714.4346237182617,right,1166.6589250564575,None,-1,-1,pp_15,icub,clamp,2021_Dec_23_1430,exp,2021.2.3,59.86269970627443,
left,go,2,0,2,0,12,0,72,0,1167.1911120414734,None,1,0.6573729515075684,1167.1911120414734,None,1167.9820890426636,None,1168.9949929714203,1169.3464448451996,1168.9949929714203,1169.3464448451996,1167.9820890426636,None,1167.9820890426636,None,1167.9820890426636,None,1,True,547.2865104675293,747.1942901611328,left,1171.153648853302,None,-1,-1,pp_15,icub,clamp,2021_Dec_23_1430,exp,2021.2.3,59.86269970627443,
right,go,2,0,2,0,12,1,73,3,1171.6863288879395,None,1,0.6801159381866455,1171.6863288879395,None,1172.4765059947968,None,1173.4948589801788,1173.8278949260712,1173.4948589801788,1173.8278949260712,1172.4765059947968,None,1172.4765059947968,None,1172.4765059947968,None,1,True,345.672607421875,838.1140232086182,right,1175.543163061142,None,-1,-1,pp_15,icub,clamp,2021_Dec_23_1430,exp,2021.2.3,59.86269970627443,
left,stop,2,0,2,0,12,2,74,2,1176.0508198738098,None,1,0.6522350311279297,1176.0508198738098,None,1176.7785840034485,None,1177.796975851059,1178.1559598445892,1177.796975851059,1178.1559598445892,1176.7785840034485,None,1176.7785840034485,None,1176.7785840034485,None,1,True,295.9859371185303,-1.0,-1,1181.9788219928741,None,600,600,pp_15,icub,clamp,2021_Dec_23_1430,exp,2021.2.3,59.86269970627443,
right,go,2,0,2,0,12,3,75,3,1182.510272026062,None,1,0.257519006729126,1182.510272026062,None,1182.8766779899597,None,1183.8620998859406,1184.1978039741516,1183.8620998859406,1184.1978039741516,1182.8766779899597,None,1182.8766779899597,None,1182.8766779899597,None,1,True,430.42469024658203,720.1385498046875,right,1185.924833059311,None,-1,-1,pp_15,icub,clamp,2021_Dec_23_1430,exp,2021.2.3,59.86269970627443,
right,stop,2,0,2,0,12,4,76,5,1186.4365420341492,None,1,0.6379921436309814,1186.4365420341492,None,1187.165037870407,None,1188.1717879772186,1188.5345559120178,1188.1717879772186,1188.5345559120178,1187.165037870407,None,1187.165037870407,None,1187.165037870407,None,0,True,302.5250434875488,695.2905654907227,right,1190.0689079761505,None,650,600,pp_15,icub,clamp,2021_Dec_23_1430,exp,2021.2.3,59.86269970627443,
right,go,2,0,2,0,12,5,77,3,1190.5774898529053,None,1,0.7497460842132568,1190.5774898529053,None,1191.4282810688019,None,1192.421205997467,1192.7886538505554,1192.421205997467,1192.7886538505554,1191.4282810688019,None,1191.4282810688019,None,1191.4282810688019,None,1,True,405.7474136352539,762.9570960998535,right,1194.4880440235138,None,-1,-1,pp_15,icub,clamp,2021_Dec_23_1430,exp,2021.2.3,59.86269970627443,
left,go,3,0,3,0,0,0,0,0,1207.7323780059814,None,1,5.251042127609253,1207.7323780059814,None,1213.073520898819,None,1214.1008439064026,1214.4640309810638,1214.1008439064026,1214.4640309810638,1213.073520898819,None,1213.073520898819,None,1213.073520898819,None,1,True,391.9832706451416,717.3912525177002,left,1216.0630309581757,None,-1,-1,pp_15,icub,clamp,2021_Dec_23_1430,exp,2021.2.3,59.86269970627443,
right,go,3,0,3,0,0,1,1,4,1216.5833759307861,None,1,0.5777909755706787,1216.5833759307861,None,1217.2850539684296,None,1218.276023864746,1218.5997240543365,1218.276023864746,1218.5997240543365,1217.2850539684296,None,1217.2850539684296,None,1217.2850539684296,None,1,True,84.41734313964844,754.2064189910889,right,1220.0026369094849,None,-1,-1,pp_15,icub,clamp,2021_Dec_23_1430,exp,2021.2.3,59.86269970627443,
right,go,3,0,3,0,0,2,2,3,1220.5252318382263,None,1,0.5487749576568604,1220.5252318382263,None,1221.1892800331116,None,1222.194529056549,1222.5634109973907,1222.194529056549,1222.5634109973907,1221.1892800331116,None,1221.1892800331116,None,1221.1892800331116,None,1,True,92.54240989685059,772.9456424713135,right,1223.9499549865723,None,-1,-1,pp_15,icub,clamp,2021_Dec_23_1430,exp,2021.2.3,59.86269970627443,
right,stop,3,0,3,0,0,3,3,5,1224.4758570194244,None,1,0.5255889892578125,1224.4758570194244,None,1225.0820150375366,None,1226.0866000652313,1226.4419388771057,1226.0866000652313,1226.4419388771057,1225.0820150375366,None,1225.0820150375366,None,1225.0820150375366,None,0,True,221.00162506103516,721.2522029876709,right,1227.9009699821472,None,650,550,pp_15,icub,clamp,2021_Dec_23_1430,exp,2021.2.3,59.86269970627443,
right,stop,3,0,3,0,0,4,4,5,1228.3983180522919,None,1,0.7291240692138672,1228.3983180522919,None,1229.2472219467163,None,1230.2703249454498,1230.6381690502167,1230.2703249454498,1230.6381690502167,1229.2472219467163,None,1229.2472219467163,None,1229.2472219467163,None,1,True,408.344030380249,-1.0,-1,1234.545310974121,None,650,500,pp_15,icub,clamp,2021_Dec_23_1430,exp,2021.2.3,59.86269970627443,
right,stop,3,0,3,0,0,5,5,5,1235.0404269695282,None,1,0.35042381286621094,1235.0404269695282,None,1235.5283398628235,None,1236.5126609802246,1236.8822860717773,1236.5126609802246,1236.8822860717773,1235.5283398628235,None,1235.5283398628235,None,1235.5283398628235,None,1,True,299.53742027282715,-1.0,-1,1240.710100889206,None,650,550,pp_15,icub,clamp,2021_Dec_23_1430,exp,2021.2.3,59.86269970627443,
left,stop,3,0,3,0,1,0,6,2,1241.2433898448944,None,1,0.28649401664733887,1241.2433898448944,None,1241.608866930008,None,1242.5892469882965,1242.9556930065155,1242.5892469882965,1242.9556930065155,1241.608866930008,None,1241.608866930008,None,1241.608866930008,None,0,True,329.465389251709,808.8932037353516,left,1244.6306700706482,None,650,600,pp_15,icub,clamp,2021_Dec_23_1430,exp,2021.2.3,59.86269970627443,
right,go,3,0,3,0,1,1,7,4,1245.1342840194702,None,1,1.0318000316619873,1245.1342840194702,None,1246.2954008579254,None,1247.3236269950867,1247.6684329509735,1247.3236269950867,1247.6684329509735,1246.2954008579254,None,1246.2954008579254,None,1246.2954008579254,None,1,True,374.3443489074707,892.9016590118408,right,1249.4571268558502,None,-1,-1,pp_15,icub,clamp,2021_Dec_23_1430,exp,2021.2.3,59.86269970627443,
right,go,3,0,3,0,1,2,8,3,1249.9758958816528,None,1,0.5724849700927734,1249.9758958816528,None,1250.640676021576,None,1251.6447010040283,1251.9907519817352,1251.6447010040283,1251.9907519817352,1250.640676021576,None,1250.640676021576,None,1250.640676021576,None,1,True,354.4597625732422,806.4944744110107,right,1253.684042930603,None,-1,-1,pp_15,icub,clamp,2021_Dec_23_1430,exp,2021.2.3,59.86269970627443,
right,go,3,0,3,0,1,3,9,3,1254.2061140537262,None,1,0.6419739723205566,1254.2061140537262,None,1254.9338278770447,None,1255.9559378623962,1256.3197660446167,1255.9559378623962,1256.3197660446167,1254.9338278770447,None,1254.9338278770447,None,1254.9338278770447,None,1,True,384.5713138580322,795.6826686859131,right,1258.014797925949,None,-1,-1,pp_15,icub,clamp,2021_Dec_23_1430,exp,2021.2.3,59.86269970627443,
right,go,3,0,3,0,1,4,10,3,1258.5345878601074,None,1,0.5882589817047119,1258.5345878601074,None,1259.2439148426056,None,1260.258605003357,1260.6148798465729,1260.258605003357,1260.6148798465729,1259.2439148426056,None,1259.2439148426056,None,1259.2439148426056,None,1,True,322.948694229126,756.0019493103027,right,1262.2235288619995,None,-1,-1,pp_15,icub,clamp,2021_Dec_23_1430,exp,2021.2.3,59.86269970627443,
left,go,3,0,3,0,1,5,11,1,1262.7394008636475,None,1,0.5777730941772461,1262.7394008636475,None,1263.407872915268,None,1264.415109872818,1264.767940044403,1264.415109872818,1264.767940044403,1263.407872915268,None,1263.407872915268,None,1263.407872915268,None,1,True,359.2236042022705,827.5406360626221,left,1266.4799699783325,None,-1,-1,pp_15,icub,clamp,2021_Dec_23_1430,exp,2021.2.3,59.86269970627443,
right,stop,3,0,3,0,2,0,12,5,1266.9921898841858,None,1,0.6421730518341064,1266.9921898841858,None,1267.7203040122986,None,1268.7303228378296,1269.0964620113373,1268.7303228378296,1269.0964620113373,1267.7203040122986,None,1267.7203040122986,None,1267.7203040122986,None,0,True,340.57164192199707,658.1881046295166,right,1270.6345160007477,None,600,600,pp_15,icub,clamp,2021_Dec_23_1430,exp,2021.2.3,59.86269970627443,
