Holder,Action,blocks.thisRepN,blocks.thisTrialN,blocks.thisN,blocks.thisIndex,trials.thisRepN,trials.thisTrialN,trials.thisN,trials.thisIndex,start_msg.started,start_msg.stopped,RespButton_start_trial.keys,RespButton_start_trial.rt,RespButton_start_trial.started,RespButton_start_trial.stopped,GREEN.started,GREEN.stopped,LEFT_RED.started,LEFT_RED.stopped,RIGHT_RED.started,RIGHT_RED.stopped,LEFT_CIRCLE.started,LEFT_CIRCLE.stopped,CENTER_CIRCLE.started,CENTER_CIRCLE.stopped,RIGHT_CIRCLE.started,RIGHT_CIRCLE.stopped,SOUND_DELAY_MS_LEFT,SOUND_DELAY_MS_RIGHT,CORRECT,VALIDITY,RELEASE_TIME,TOUCH_TIME,BOTTLE_RESPONSE_POSITION,text.started,text.stopped,pid,left_position,right_position,date,expName,psychopyVersion,frameRate,
left,go,0,0,0,0,0,0,0,1,52.52605605125427,None,1,10.12202501296997,52.52605605125427,None,62.74959087371826,None,63.74584603309631,64.09112501144409,63.74584603309631,64.09112501144409,62.74959087371826,None,62.74959087371826,None,62.74959087371826,None,-1,-1,1,True,302.9215335845947,358.80088806152344,left,65.32708692550659,None,pp_12,icub,clamp,2021_Dec_22_1626,exp,2021.2.3,60.183003910033364,
right,stop,0,0,0,0,0,1,1,5,65.84309196472168,None,1,1.058539867401123,65.84309196472168,None,67.0031328201294,None,68.00792598724365,68.36256003379822,68.00792598724365,68.36256003379822,67.0031328201294,None,67.0031328201294,None,67.0031328201294,None,500,500,0,True,105.06939888000488,460.06035804748535,right,69.4542829990387,None,pp_12,icub,clamp,2021_Dec_22_1626,exp,2021.2.3,60.183003910033364,
right,go,0,0,0,0,0,2,2,3,69.95331382751465,None,1,2.8086578845977783,69.95331382751465,None,72.8472089767456,None,73.86269783973694,74.21889305114746,73.86269783973694,74.21889305114746,72.8472089767456,None,72.8472089767456,None,72.8472089767456,None,-1,-1,1,True,334.00940895080566,543.1640148162842,right,75.62734293937683,None,pp_12,icub,clamp,2021_Dec_22_1626,exp,2021.2.3,60.183003910033364,
right,go,0,0,0,0,0,3,3,3,76.13895082473755,None,1,1.5510210990905762,76.13895082473755,None,77.79621386528015,None,78.79948401451111,79.14611482620239,78.79948401451111,79.14611482620239,77.79621386528015,None,77.79621386528015,None,77.79621386528015,None,-1,-1,1,True,280.4293632507324,401.57556533813477,right,80.38513803482056,None,pp_12,icub,clamp,2021_Dec_22_1626,exp,2021.2.3,60.183003910033364,
right,go,0,0,0,0,0,4,4,4,80.89454984664917,None,1,1.3453600406646729,80.89454984664917,None,82.36449790000916,None,83.39143300056458,83.72193598747253,83.39143300056458,83.72193598747253,82.36449790000916,None,82.36449790000916,None,82.36449790000916,None,-1,-1,1,True,186.21301651000977,632.7753067016602,right,85.07207703590393,None,pp_12,icub,clamp,2021_Dec_22_1626,exp,2021.2.3,60.183003910033364,
right,go,0,0,0,0,0,5,5,3,85.58620405197144,None,1,1.0433008670806885,85.58620405197144,None,86.74546694755554,None,87.73637199401855,88.06551790237427,87.73637199401855,88.06551790237427,86.74546694755554,None,86.74546694755554,None,86.74546694755554,None,-1,-1,1,True,219.62833404541016,514.3954753875732,right,89.37459993362427,None,pp_12,icub,clamp,2021_Dec_22_1626,exp,2021.2.3,60.183003910033364,
right,go,0,0,0,0,1,0,6,3,89.88683485984802,None,1,0.6518709659576416,89.88683485984802,None,90.66215991973877,None,91.67057704925537,92.03075098991394,91.67057704925537,92.03075098991394,90.66215991973877,None,90.66215991973877,None,90.66215991973877,None,-1,-1,1,True,62.99877166748047,657.5918197631836,right,93.26171898841858,None,pp_12,icub,clamp,2021_Dec_22_1626,exp,2021.2.3,60.183003910033364,
left,go,0,0,0,0,1,1,7,1,93.77911901473999,None,1,0.5015780925750732,93.77911901473999,None,94.38243198394775,None,95.390625,95.75689196586609,95.390625,95.75689196586609,94.38243198394775,None,94.38243198394775,None,94.38243198394775,None,-1,-1,1,True,263.2713317871094,426.2235164642334,left,96.97502589225769,None,pp_12,icub,clamp,2021_Dec_22_1626,exp,2021.2.3,60.183003910033364,
left,go,0,0,0,0,1,2,8,1,97.48163104057312,None,1,0.6441819667816162,97.48163104057312,None,98.2078468799591,None,99.20659184455872,99.56298899650574,99.20659184455872,99.56298899650574,98.2078468799591,None,98.2078468799591,None,98.2078468799591,None,-1,-1,1,True,153.50103378295898,468.9939022064209,left,100.71706700325012,None,pp_12,icub,clamp,2021_Dec_22_1626,exp,2021.2.3,60.183003910033364,
left,go,0,0,0,0,1,3,9,1,101.21895384788513,None,1,0.38765883445739746,101.21895384788513,None,101.70228385925293,None,102.69749999046326,103.01923704147339,102.69749999046326,103.01923704147339,101.70228385925293,None,101.70228385925293,None,101.70228385925293,None,,,0,False,-1.0,-1.0,-1,103.53283405303955,None,pp_12,icub,clamp,2021_Dec_22_1626,exp,2021.2.3,60.183003910033364,
left,stop,0,0,0,0,1,4,10,2,104.0265908241272,None,1,1.6583640575408936,104.0265908241272,None,105.81386995315552,None,106.79616093635559,107.14927291870117,106.79616093635559,107.14927291870117,105.81386995315552,None,105.81386995315552,None,105.81386995315552,None,500,450,0,True,210.9513282775879,494.58980560302734,left,108.3998670578003,None,pp_12,icub,clamp,2021_Dec_22_1626,exp,2021.2.3,60.183003910033364,
left,stop,0,0,0,0,1,5,11,2,108.93236899375916,None,1,1.5345289707183838,108.93236899375916,None,110.57143092155457,None,111.56490087509155,111.90998792648315,111.56490087509155,111.90998792648315,110.57143092155457,None,110.57143092155457,None,110.57143092155457,None,450,450,0,True,309.22651290893555,403.7165641784668,left,113.15743088722229,None,pp_12,icub,clamp,2021_Dec_22_1626,exp,2021.2.3,60.183003910033364,
right,go,0,0,0,0,2,0,12,3,113.67655491828918,None,1,1.3619379997253418,113.67655491828918,None,115.14515399932861,None,116.16014003753662,116.49184584617615,116.16014003753662,116.49184584617615,115.14515399932861,None,115.14515399932861,None,115.14515399932861,None,-1,-1,1,True,244.16661262512207,563.774585723877,right,117.8602499961853,None,pp_12,icub,clamp,2021_Dec_22_1626,exp,2021.2.3,60.183003910033364,
right,go,0,0,0,0,2,1,13,3,118.38183498382568,None,1,0.6045660972595215,118.38183498382568,None,119.11014103889465,None,120.11324405670166,120.46660494804382,120.11324405670166,120.46660494804382,119.11014103889465,None,119.11014103889465,None,119.11014103889465,None,-1,-1,1,True,290.03381729125977,519.6855068206787,right,121.80118799209595,None,pp_12,icub,clamp,2021_Dec_22_1626,exp,2021.2.3,60.183003910033364,
right,go,0,0,0,0,2,2,14,4,122.31956100463867,None,1,0.8137900829315186,122.31956100463867,None,123.23532700538635,None,124.25698184967041,124.6221809387207,124.25698184967041,124.6221809387207,123.23532700538635,None,123.23532700538635,None,123.23532700538635,None,-1,-1,1,True,52.57439613342285,676.4934062957764,right,125.84122800827026,None,pp_12,icub,clamp,2021_Dec_22_1626,exp,2021.2.3,60.183003910033364,
left,stop,0,0,0,0,2,3,15,2,126.36403799057007,None,1,0.45266008377075195,126.36403799057007,None,126.8969738483429,None,127.92260694503784,128.29210686683655,127.92260694503784,128.29210686683655,126.8969738483429,None,126.8969738483429,None,126.8969738483429,None,400,450,0,True,228.9731502532959,491.4984703063965,left,129.5070719718933,None,pp_12,icub,clamp,2021_Dec_22_1626,exp,2021.2.3,60.183003910033364,
left,stop,0,0,0,0,2,4,16,2,130.02440404891968,None,1,2.2510948181152344,130.02440404891968,None,132.35616993904114,None,133.35529088974,133.70622897148132,133.35529088974,133.70622897148132,132.35616993904114,None,132.35616993904114,None,132.35616993904114,None,350,450,0,True,421.89621925354004,466.77231788635254,left,135.12696385383606,None,pp_12,icub,clamp,2021_Dec_22_1626,exp,2021.2.3,60.183003910033364,
left,stop,0,0,0,0,2,5,17,2,135.64783596992493,None,1,1.2590930461883545,135.64783596992493,None,136.99266695976257,None,137.98515105247498,138.3390669822693,137.98515105247498,138.3390669822693,136.99266695976257,None,136.99266695976257,None,136.99266695976257,None,300,450,0,True,410.3724956512451,406.8026542663574,left,139.69114589691162,None,pp_12,icub,clamp,2021_Dec_22_1626,exp,2021.2.3,60.183003910033364,
left,go,0,0,0,0,3,0,18,1,140.20809292793274,None,1,1.5844991207122803,140.20809292793274,None,141.9205448627472,None,142.9220688343048,143.2763969898224,142.9220688343048,143.2763969898224,141.9205448627472,None,141.9205448627472,None,141.9205448627472,None,-1,-1,1,True,262.8941535949707,563.6584758758545,left,144.6332929134369,None,pp_12,icub,clamp,2021_Dec_22_1626,exp,2021.2.3,60.183003910033364,
left,go,0,0,0,0,3,1,19,1,145.14479804039001,None,1,0.34456300735473633,145.14479804039001,None,145.622496843338,None,146.63639783859253,146.98923182487488,146.63639783859253,146.98923182487488,145.622496843338,None,145.622496843338,None,145.622496843338,None,-1,-1,1,True,340.06428718566895,534.5597267150879,left,148.3939619064331,None,pp_12,icub,clamp,2021_Dec_22_1626,exp,2021.2.3,60.183003910033364,
left,stop,0,0,0,0,3,2,20,2,148.89783000946045,None,1,0.49068403244018555,148.89783000946045,None,149.49897003173828,None,150.49525785446167,150.85436487197876,150.49525785446167,150.85436487197876,149.49897003173828,None,149.49897003173828,None,149.49897003173828,None,250,450,1,True,195.44386863708496,-1.0,-1,154.57967495918274,None,pp_12,icub,clamp,2021_Dec_22_1626,exp,2021.2.3,60.183003910033364,
left,go,0,0,0,0,3,3,21,1,155.1104929447174,None,1,1.397294044494629,155.1104929447174,None,156.58992505073547,None,157.57036185264587,157.93045902252197,157.57036185264587,157.93045902252197,156.58992505073547,None,156.58992505073547,None,156.58992505073547,None,-1,-1,1,True,442.63434410095215,400.7000923156738,left,159.29559302330017,None,pp_12,icub,clamp,2021_Dec_22_1626,exp,2021.2.3,60.183003910033364,
left,stop,0,0,0,0,3,4,22,2,159.81037282943726,None,1,2.087930917739868,159.81037282943726,None,162.0165410041809,None,163.01067304611206,163.35420989990234,163.01067304611206,163.35420989990234,162.0165410041809,None,162.0165410041809,None,162.0165410041809,None,300,450,1,True,367.1386241912842,-1.0,-1,167.2872610092163,None,pp_12,icub,clamp,2021_Dec_22_1626,exp,2021.2.3,60.183003910033364,
left,go,0,0,0,0,3,5,23,0,167.82116389274597,None,1,2.251336097717285,167.82116389274597,None,170.14934396743774,None,171.156898021698,171.5070538520813,171.156898021698,171.5070538520813,170.14934396743774,None,170.14934396743774,None,170.14934396743774,None,-1,-1,1,True,334.8813056945801,421.431303024292,left,172.78301000595093,None,pp_12,icub,clamp,2021_Dec_22_1626,exp,2021.2.3,60.183003910033364,
left,go,0,0,0,0,4,0,24,0,173.28588390350342,None,1,0.5092620849609375,173.28588390350342,None,173.89096689224243,None,174.8911600112915,175.24433398246765,174.8911600112915,175.24433398246765,173.89096689224243,None,173.89096689224243,None,173.89096689224243,None,-1,-1,1,True,300.976037979126,402.5886058807373,left,176.47931790351868,None,pp_12,icub,clamp,2021_Dec_22_1626,exp,2021.2.3,60.183003910033364,
right,stop,0,0,0,0,4,1,25,5,176.98048090934753,None,1,0.8490471839904785,176.98048090934753,None,177.95335388183594,None,178.98263788223267,179.33340191841125,178.98263788223267,179.33340191841125,177.95335388183594,None,177.95335388183594,None,177.95335388183594,None,350,450,0,True,307.3880672454834,482.73205757141113,right,180.65680694580078,None,pp_12,icub,clamp,2021_Dec_22_1626,exp,2021.2.3,60.183003910033364,
left,go,0,0,0,0,4,2,26,0,181.17490696907043,None,1,4.050221920013428,181.17490696907043,None,185.34849882125854,None,186.35757398605347,186.70476698875427,186.35757398605347,186.70476698875427,185.34849882125854,None,185.34849882125854,None,185.34849882125854,None,,,0,False,-1.0,-1.0,-1,187.14290285110474,None,pp_12,icub,clamp,2021_Dec_22_1626,exp,2021.2.3,60.183003910033364,
right,go,0,0,0,0,4,3,27,4,187.67450189590454,None,1,1.340155839920044,187.67450189590454,None,189.15367603302002,None,190.14289093017578,190.49348282814026,190.14289093017578,190.49348282814026,189.15367603302002,None,189.15367603302002,None,189.15367603302002,None,-1,-1,1,True,731.9390773773193,411.56792640686035,right,192.16974592208862,None,pp_12,icub,clamp,2021_Dec_22_1626,exp,2021.2.3,60.183003910033364,
right,go,0,0,0,0,4,4,28,4,192.6764588356018,None,1,0.45468902587890625,192.6764588356018,None,193.22200298309326,None,194.20981884002686,194.5657799243927,194.20981884002686,194.5657799243927,193.22200298309326,None,193.22200298309326,None,193.22200298309326,None,-1,-1,1,True,270.9944248199463,406.1005115509033,right,195.7664840221405,None,pp_12,icub,clamp,2021_Dec_22_1626,exp,2021.2.3,60.183003910033364,
left,go,0,0,0,0,4,5,29,0,196.266263961792,None,1,1.5370080471038818,196.266263961792,None,197.9221968650818,None,198.94684290885925,199.30263304710388,198.94684290885925,199.30263304710388,197.9221968650818,None,197.9221968650818,None,197.9221968650818,None,,,0,False,3000.3950595855713,-1.0,-1,202.82897400856018,None,pp_12,icub,clamp,2021_Dec_22_1626,exp,2021.2.3,60.183003910033364,
right,go,0,0,0,0,5,0,30,3,203.32203698158264,None,1,2.276093006134033,203.32203698158264,None,205.7145049571991,None,206.74534583091736,207.10182404518127,206.74534583091736,207.10182404518127,205.7145049571991,None,205.7145049571991,None,205.7145049571991,None,-1,-1,1,True,310.1823329925537,443.0367946624756,right,208.34709000587463,None,pp_12,icub,clamp,2021_Dec_22_1626,exp,2021.2.3,60.183003910033364,
left,go,0,0,0,0,5,1,31,1,208.85176491737366,None,1,0.48645997047424316,208.85176491737366,None,209.45738005638123,None,210.47333002090454,210.83356285095215,210.47333002090454,210.83356285095215,209.45738005638123,None,209.45738005638123,None,209.45738005638123,None,-1,-1,1,True,336.8268013000488,457.988977432251,left,212.1526849269867,None,pp_12,icub,clamp,2021_Dec_22_1626,exp,2021.2.3,60.183003910033364,
left,go,0,0,0,0,5,2,32,0,212.66702795028687,None,1,1.2110099792480469,212.66702795028687,None,213.95352482795715,None,214.95654296875,215.32687187194824,214.95654296875,215.32687187194824,213.95352482795715,None,213.95352482795715,None,213.95352482795715,None,-1,-1,1,True,331.2239646911621,360.8365058898926,left,216.54839992523193,None,pp_12,icub,clamp,2021_Dec_22_1626,exp,2021.2.3,60.183003910033364,
right,go,0,0,0,0,5,3,33,4,217.06658005714417,None,1,1.6615049839019775,217.06658005714417,None,218.84385585784912,None,219.84896683692932,220.19824290275574,219.84896683692932,220.19824290275574,218.84385585784912,None,218.84385585784912,None,218.84385585784912,None,-1,-1,1,True,561.0160827636719,517.4100399017334,right,221.8059959411621,None,pp_12,icub,clamp,2021_Dec_22_1626,exp,2021.2.3,60.183003910033364,
left,go,0,0,0,0,5,4,34,0,222.32315802574158,None,1,0.45055317878723145,222.32315802574158,None,222.86434698104858,None,223.86188292503357,224.22234797477722,223.86188292503357,224.22234797477722,222.86434698104858,None,222.86434698104858,None,222.86434698104858,None,-1,-1,1,True,302.51526832580566,393.0695056915283,left,225.44372582435608,None,pp_12,icub,clamp,2021_Dec_22_1626,exp,2021.2.3,60.183003910033364,
right,stop,0,0,0,0,5,5,35,5,225.94312000274658,None,1,0.618157148361206,225.94312000274658,None,226.67229199409485,None,227.69834399223328,228.04833984375,227.69834399223328,228.04833984375,226.67229199409485,None,226.67229199409485,None,226.67229199409485,None,350,400,0,True,321.7487335205078,419.72875595092773,right,229.32503199577332,None,pp_12,icub,clamp,2021_Dec_22_1626,exp,2021.2.3,60.183003910033364,
left,go,0,0,0,0,6,0,36,0,229.85368704795837,None,1,4.552444934844971,229.85368704795837,None,234.5070309638977,None,235.51578998565674,235.87083292007446,235.51578998565674,235.87083292007446,234.5070309638977,None,234.5070309638977,None,234.5070309638977,None,-1,-1,1,True,279.9525260925293,368.4852123260498,left,237.05449104309082,None,pp_12,icub,clamp,2021_Dec_22_1626,exp,2021.2.3,60.183003910033364,
right,go,0,0,0,0,6,1,37,4,237.56936502456665,None,1,0.5416748523712158,237.56936502456665,None,238.23435997962952,None,239.24174094200134,239.59054684638977,239.24174094200134,239.59054684638977,238.23435997962952,None,238.23435997962952,None,238.23435997962952,None,-1,-1,1,True,271.2111473083496,442.0483112335205,right,240.82131695747375,None,pp_12,icub,clamp,2021_Dec_22_1626,exp,2021.2.3,60.183003910033364,
right,stop,0,0,0,0,6,2,38,5,241.3244948387146,None,1,0.8445289134979248,241.3244948387146,None,242.29663586616516,None,243.32753586769104,243.66672682762146,243.32753586769104,243.66672682762146,242.29663586616516,None,242.29663586616516,None,242.29663586616516,None,350,350,0,True,336.9927406311035,397.6168632507324,right,244.9248080253601,None,pp_12,icub,clamp,2021_Dec_22_1626,exp,2021.2.3,60.183003910033364,
left,stop,0,0,0,0,6,3,39,2,245.44182586669922,None,1,1.081251859664917,245.44182586669922,None,246.6426649093628,None,247.6762490272522,248.0402069091797,247.6762490272522,248.0402069091797,246.6426649093628,None,246.6426649093628,None,246.6426649093628,None,350,300,0,True,307.04689025878906,368.7911033630371,left,249.20320391654968,None,pp_12,icub,clamp,2021_Dec_22_1626,exp,2021.2.3,60.183003910033364,
right,go,0,0,0,0,6,4,40,4,249.70446491241455,None,1,2.2213728427886963,249.70446491241455,None,252.04030394554138,None,253.0435769557953,253.39288687705994,253.0435769557953,253.39288687705994,252.04030394554138,None,252.04030394554138,None,252.04030394554138,None,-1,-1,1,True,239.3794059753418,438.0347728729248,right,254.60694885253906,None,pp_12,icub,clamp,2021_Dec_22_1626,exp,2021.2.3,60.183003910033364,
left,go,0,0,0,0,6,5,41,0,255.1379280090332,None,1,0.45150208473205566,255.1379280090332,None,255.67744994163513,None,256.70701599121094,257.05816197395325,256.70701599121094,257.05816197395325,255.67744994163513,None,255.67744994163513,None,255.67744994163513,None,-1,-1,1,True,268.0654525756836,402.0240306854248,left,258.2501769065857,None,pp_12,icub,clamp,2021_Dec_22_1626,exp,2021.2.3,60.183003910033364,
right,go,0,0,0,0,7,0,42,4,258.7604398727417,None,1,0.8878340721130371,258.7604398727417,None,259.73397302627563,None,260.75121092796326,261.08768582344055,260.75121092796326,261.08768582344055,259.73397302627563,None,259.73397302627563,None,259.73397302627563,None,-1,-1,1,True,151.4143943786621,401.5467166900635,right,262.19656205177307,None,pp_12,icub,clamp,2021_Dec_22_1626,exp,2021.2.3,60.183003910033364,
right,go,0,0,0,0,7,1,43,4,262.7001440525055,None,1,0.4747161865234375,262.7001440525055,None,263.30333399772644,None,264.31877994537354,264.6749060153961,264.31877994537354,264.6749060153961,263.30333399772644,None,263.30333399772644,None,263.30333399772644,None,-1,-1,1,True,38.81120681762695,552.6864528656006,right,265.78769993782043,None,pp_12,icub,clamp,2021_Dec_22_1626,exp,2021.2.3,60.183003910033364,
left,go,0,0,0,0,7,2,44,0,266.28896403312683,None,1,1.4042840003967285,266.28896403312683,None,267.8217158317566,None,268.8413498401642,269.17749404907227,268.8413498401642,269.17749404907227,267.8217158317566,None,267.8217158317566,None,267.8217158317566,None,-1,-1,1,True,74.26118850708008,482.68747329711914,left,270.259299993515,None,pp_12,icub,clamp,2021_Dec_22_1626,exp,2021.2.3,60.183003910033364,
right,stop,0,0,0,0,7,3,45,5,270.779415845871,None,1,0.33678507804870605,270.779415845871,None,271.20168900489807,None,272.2023649215698,272.5458290576935,272.2023649215698,272.5458290576935,271.20168900489807,None,271.20168900489807,None,271.20168900489807,None,300,300,0,True,294.1427230834961,415.53211212158203,right,273.7844488620758,None,pp_12,icub,clamp,2021_Dec_22_1626,exp,2021.2.3,60.183003910033364,
right,go,0,0,0,0,7,4,46,3,274.28122782707214,None,1,5.869791030883789,274.28122782707214,None,280.26769495010376,None,281.2855648994446,281.645663022995,281.2855648994446,281.645663022995,280.26769495010376,None,280.26769495010376,None,280.26769495010376,None,-1,-1,1,True,302.14595794677734,387.0275020599365,right,282.8716540336609,None,pp_12,icub,clamp,2021_Dec_22_1626,exp,2021.2.3,60.183003910033364,
right,go,0,0,0,0,7,5,47,3,283.39550495147705,None,1,0.4195749759674072,283.39550495147705,None,283.93849992752075,None,284.9341609477997,285.2928538322449,284.9341609477997,285.2928538322449,283.93849992752075,None,283.93849992752075,None,283.93849992752075,None,-1,-1,1,True,333.4500789642334,390.8655643463135,right,286.5623450279236,None,pp_12,icub,clamp,2021_Dec_22_1626,exp,2021.2.3,60.183003910033364,
right,go,0,0,0,0,8,0,48,4,287.0661039352417,None,1,1.8887739181518555,287.0661039352417,None,289.0926368236542,None,290.0902829170227,290.44588899612427,290.0902829170227,290.44588899612427,289.0926368236542,None,289.0926368236542,None,289.0926368236542,None,-1,-1,1,True,230.98301887512207,520.9176540374756,right,291.7500560283661,None,pp_12,icub,clamp,2021_Dec_22_1626,exp,2021.2.3,60.183003910033364,
left,go,0,0,0,0,8,1,49,1,292.2686469554901,None,1,0.38242197036743164,292.2686469554901,None,292.75181698799133,None,293.7562129497528,294.1005380153656,293.7562129497528,294.1005380153656,292.75181698799133,None,292.75181698799133,None,292.75181698799133,None,-1,-1,1,True,327.5918960571289,425.10414123535156,left,295.399512052536,None,pp_12,icub,clamp,2021_Dec_22_1626,exp,2021.2.3,60.183003910033364,
right,go,0,0,0,0,8,2,50,4,295.9293110370636,None,1,2.2058000564575195,295.9293110370636,None,298.26315689086914,None,299.2727918624878,299.6087439060211,299.2727918624878,299.6087439060211,298.26315689086914,None,298.26315689086914,None,298.26315689086914,None,-1,-1,1,True,262.0222568511963,494.83561515808105,right,300.931499004364,None,pp_12,icub,clamp,2021_Dec_22_1626,exp,2021.2.3,60.183003910033364,
right,stop,0,0,0,0,8,3,51,5,301.445818901062,None,1,1.8241550922393799,301.445818901062,None,303.3504500389099,None,304.3583538532257,304.6817698478699,304.3583538532257,304.6817698478699,303.3504500389099,None,303.3504500389099,None,303.3504500389099,None,300,250,1,True,312.90674209594727,-1.0,-1,308.5624849796295,None,pp_12,icub,clamp,2021_Dec_22_1626,exp,2021.2.3,60.183003910033364,
left,go,0,0,0,0,8,4,52,0,309.09498405456543,None,1,1.0433788299560547,309.09498405456543,None,310.2638659477234,None,311.23594403266907,311.5909569263458,311.23594403266907,311.5909569263458,310.2638659477234,None,310.2638659477234,None,310.2638659477234,None,-1,-1,1,True,287.5041961669922,395.51401138305664,left,312.83462285995483,None,pp_12,icub,clamp,2021_Dec_22_1626,exp,2021.2.3,60.183003910033364,
right,stop,0,0,0,0,8,5,53,5,313.3553669452667,None,1,0.4994208812713623,313.3553669452667,None,313.9616210460663,None,314.96540093421936,315.321005821228,314.96540093421936,315.321005821228,313.9616210460663,None,313.9616210460663,None,313.9616210460663,None,300,300,1,True,309.30161476135254,-1.0,-1,319.14495182037354,None,pp_12,icub,clamp,2021_Dec_22_1626,exp,2021.2.3,60.183003910033364,
left,go,0,0,0,0,9,0,54,1,319.6760468482971,None,1,0.8572709560394287,319.6760468482971,None,320.6590359210968,None,321.64538288116455,321.9898979663849,321.64538288116455,321.9898979663849,320.6590359210968,None,320.6590359210968,None,320.6590359210968,None,-1,-1,1,True,300.81844329833984,401.17597579956055,left,323.25155091285706,None,pp_12,icub,clamp,2021_Dec_22_1626,exp,2021.2.3,60.183003910033364,
right,stop,0,0,0,0,9,1,55,5,323.76389598846436,None,1,0.5535221099853516,323.76389598846436,None,324.38768696784973,None,325.40903401374817,325.7681658267975,325.40903401374817,325.7681658267975,324.38768696784973,None,324.38768696784973,None,324.38768696784973,None,300,350,0,True,304.03709411621094,450.8178234100342,right,327.0505750179291,None,pp_12,icub,clamp,2021_Dec_22_1626,exp,2021.2.3,60.183003910033364,
right,stop,0,0,0,0,9,2,56,5,327.57183289527893,None,1,5.547065019607544,327.57183289527893,None,333.194473028183,None,334.22498989105225,334.5748038291931,334.22498989105225,334.5748038291931,333.194473028183,None,333.194473028183,None,333.194473028183,None,300,300,0,True,347.0940589904785,386.6751194000244,right,335.8181269168854,None,pp_12,icub,clamp,2021_Dec_22_1626,exp,2021.2.3,60.183003910033364,
right,stop,0,0,0,0,9,3,57,5,336.355064868927,None,1,0.8230137825012207,336.355064868927,None,337.26851201057434,None,338.2641808986664,338.6123728752136,338.2641808986664,338.6123728752136,337.26851201057434,None,337.26851201057434,None,337.26851201057434,None,300,250,1,True,306.26463890075684,-1.0,-1,342.48685789108276,None,pp_12,icub,clamp,2021_Dec_22_1626,exp,2021.2.3,60.183003910033364,
right,go,0,0,0,0,9,4,58,3,342.98372197151184,None,1,1.278465986251831,342.98372197151184,None,344.4007189273834,None,345.40532994270325,345.75386786460876,345.40532994270325,345.75386786460876,344.4007189273834,None,344.4007189273834,None,344.4007189273834,None,-1,-1,1,True,270.6875801086426,512.1965408325195,right,347.0456099510193,None,pp_12,icub,clamp,2021_Dec_22_1626,exp,2021.2.3,60.183003910033364,
right,stop,0,0,0,0,9,5,59,5,347.54813504219055,None,1,0.3258349895477295,347.54813504219055,None,347.9682559967041,None,348.97729301452637,349.32972502708435,348.97729301452637,349.32972502708435,347.9682559967041,None,347.9682559967041,None,347.9682559967041,None,300,300,0,True,270.6747055053711,375.0615119934082,right,350.4950358867645,None,pp_12,icub,clamp,2021_Dec_22_1626,exp,2021.2.3,60.183003910033364,
left,stop,0,0,0,0,10,0,60,2,351.0213358402252,None,1,1.6125068664550781,351.0213358402252,None,352.739483833313,None,353.7325608730316,354.09530687332153,353.7325608730316,354.09530687332153,352.739483833313,None,352.739483833313,None,352.739483833313,None,300,250,1,True,307.19733238220215,-1.0,-1,357.9333930015564,None,pp_12,icub,clamp,2021_Dec_22_1626,exp,2021.2.3,60.183003910033364,
left,stop,0,0,0,0,10,1,61,2,358.4270598888397,None,1,1.0880751609802246,358.4270598888397,None,359.5947699546814,None,360.5966320037842,360.9294500350952,360.5966320037842,360.9294500350952,359.5947699546814,None,359.5947699546814,None,359.5947699546814,None,350,250,0,True,268.42284202575684,401.89504623413086,left,362.17099499702454,None,pp_12,icub,clamp,2021_Dec_22_1626,exp,2021.2.3,60.183003910033364,
right,go,0,0,0,0,10,2,62,4,362.68561005592346,None,1,4.440178871154785,362.68561005592346,None,367.24468898773193,None,368.2421760559082,368.57388401031494,368.2421760559082,368.57388401031494,367.24468898773193,None,367.24468898773193,None,367.24468898773193,None,-1,-1,1,True,283.9205265045166,431.1108589172363,right,369.8540108203888,None,pp_12,icub,clamp,2021_Dec_22_1626,exp,2021.2.3,60.183003910033364,
left,stop,0,0,0,0,10,3,63,2,370.37267994880676,None,1,0.8683140277862549,370.37267994880676,None,371.3461608886719,None,372.36892795562744,372.70986104011536,372.36892795562744,372.70986104011536,371.3461608886719,None,371.3461608886719,None,371.3461608886719,None,300,250,0,True,294.80981826782227,346.31848335266113,left,373.88861298561096,None,pp_12,icub,clamp,2021_Dec_22_1626,exp,2021.2.3,60.183003910033364,
left,go,0,0,0,0,10,4,64,1,374.39087104797363,None,1,1.8719849586486816,374.39087104797363,None,376.3588709831238,None,377.3802099227905,377.72601795196533,377.3802099227905,377.72601795196533,376.3588709831238,None,376.3588709831238,None,376.3588709831238,None,-1,-1,1,True,167.88792610168457,400.3560543060303,left,378.82507395744324,None,pp_12,icub,clamp,2021_Dec_22_1626,exp,2021.2.3,60.183003910033364,
left,stop,0,0,0,0,10,5,65,2,379.34330701828003,None,1,1.5953459739685059,379.34330701828003,None,381.0579879283905,None,382.0781788825989,382.43476390838623,382.0781788825989,382.43476390838623,381.0579879283905,None,381.0579879283905,None,381.0579879283905,None,250,250,0,True,200.04844665527344,398.5769748687744,left,383.564395904541,None,pp_12,icub,clamp,2021_Dec_22_1626,exp,2021.2.3,60.183003910033364,
right,go,0,0,0,0,11,0,66,3,384.07021284103394,None,1,1.4835801124572754,384.07021284103394,None,385.664293050766,None,386.6661069393158,387.02018189430237,386.6661069393158,387.02018189430237,385.664293050766,None,385.664293050766,None,385.664293050766,None,-1,-1,1,True,301.5005588531494,509.5815658569336,right,388.36844301223755,None,pp_12,icub,clamp,2021_Dec_22_1626,exp,2021.2.3,60.183003910033364,
right,stop,0,0,0,0,11,1,67,5,388.8860149383545,None,1,0.45662617683410645,388.8860149383545,None,389.42832589149475,None,390.43134689331055,390.7803268432617,390.43134689331055,390.7803268432617,389.42832589149475,None,389.42832589149475,None,389.42832589149475,None,200,250,0,True,426.76234245300293,392.76885986328125,right,392.139014005661,None,pp_12,icub,clamp,2021_Dec_22_1626,exp,2021.2.3,60.183003910033364,
right,go,0,0,0,0,11,2,68,3,392.6536638736725,None,1,0.35477685928344727,392.6536638736725,None,393.13246393203735,None,394.14044189453125,394.49290585517883,394.14044189453125,394.49290585517883,393.13246393203735,None,393.13246393203735,None,393.13246393203735,None,-1,-1,1,True,337.67104148864746,681.7305088043213,right,396.0396020412445,None,pp_12,icub,clamp,2021_Dec_22_1626,exp,2021.2.3,60.183003910033364,
left,go,0,0,0,0,11,3,69,1,396.5354459285736,None,1,0.30745410919189453,396.5354459285736,None,396.9528260231018,None,397.9791269302368,398.339882850647,397.9791269302368,398.339882850647,396.9528260231018,None,396.9528260231018,None,396.9528260231018,None,-1,-1,1,True,287.69636154174805,401.1046886444092,left,399.5147190093994,None,pp_12,icub,clamp,2021_Dec_22_1626,exp,2021.2.3,60.183003910033364,
left,go,0,0,0,0,11,4,70,0,400.0415108203888,None,1,0.2888660430908203,400.0415108203888,None,400.4584138393402,None,401.4792969226837,401.827241897583,401.4792969226837,401.827241897583,400.4584138393402,None,400.4584138393402,None,400.4584138393402,None,-1,-1,1,True,356.35852813720703,488.22903633117676,left,403.1918098926544,None,pp_12,icub,clamp,2021_Dec_22_1626,exp,2021.2.3,60.183003910033364,
right,stop,0,0,0,0,11,5,71,5,403.70504689216614,None,1,0.5637650489807129,403.70504689216614,None,404.3693449497223,None,405.38784098625183,405.7535319328308,405.38784098625183,405.7535319328308,404.3693449497223,None,404.3693449497223,None,404.3693449497223,None,200,200,1,True,294.9967384338379,-1.0,-1,409.5755639076233,None,pp_12,icub,clamp,2021_Dec_22_1626,exp,2021.2.3,60.183003910033364,
left,go,0,0,0,0,12,0,72,0,410.107626914978,None,1,0.4782261848449707,410.107626914978,None,410.72154092788696,None,411.7086498737335,412.0638978481293,411.7086498737335,412.0638978481293,410.72154092788696,None,410.72154092788696,None,410.72154092788696,None,-1,-1,1,True,222.1376895904541,424.8464107513428,left,413.24106001853943,None,pp_12,icub,clamp,2021_Dec_22_1626,exp,2021.2.3,60.183003910033364,
left,go,0,0,0,0,12,1,73,1,413.77420592308044,None,1,0.3431971073150635,413.77420592308044,None,414.2460060119629,None,415.2501709461212,415.6062068939209,415.2501709461212,415.6062068939209,414.2460060119629,None,414.2460060119629,None,414.2460060119629,None,-1,-1,1,True,555.5558204650879,527.0488262176514,left,417.21127796173096,None,pp_12,icub,clamp,2021_Dec_22_1626,exp,2021.2.3,60.183003910033364,
right,go,0,0,0,0,12,2,74,4,417.73528695106506,None,1,0.11907601356506348,417.73528695106506,None,417.9689259529114,None,418.98245000839233,419.3062298297882,418.98245000839233,419.3062298297882,417.9689259529114,None,417.9689259529114,None,417.9689259529114,None,-1,-1,1,True,283.3366394042969,423.07472229003906,right,420.58615899086,None,pp_12,icub,clamp,2021_Dec_22_1626,exp,2021.2.3,60.183003910033364,
right,go,0,0,0,0,12,3,75,3,421.1136429309845,None,1,0.2098240852355957,421.1136429309845,None,421.4089820384979,None,422.40177392959595,422.7409269809723,422.40177392959595,422.7409269809723,421.4089820384979,None,421.4089820384979,None,421.4089820384979,None,-1,-1,1,True,244.58885192871094,565.1998519897461,right,424.11805391311646,None,pp_12,icub,clamp,2021_Dec_22_1626,exp,2021.2.3,60.183003910033364,
left,go,0,0,0,0,12,4,76,0,424.6225769519806,None,1,1.212805986404419,424.6225769519806,None,425.9106709957123,None,426.900358915329,427.25895404815674,426.900358915329,427.25895404815674,425.9106709957123,None,425.9106709957123,None,425.9106709957123,None,-1,-1,1,True,98.98185729980469,547.1062660217285,left,428.4367129802704,None,pp_12,icub,clamp,2021_Dec_22_1626,exp,2021.2.3,60.183003910033364,
left,stop,0,0,0,0,12,5,77,2,428.9594328403473,None,1,0.25917601585388184,428.9594328403473,None,429.3203558921814,None,430.32681798934937,430.6828730106354,430.32681798934937,430.6828730106354,429.3203558921814,None,429.3203558921814,None,429.3203558921814,None,200,250,1,True,93.81723403930664,-1.0,-1,434.30272102355957,None,pp_12,icub,clamp,2021_Dec_22_1626,exp,2021.2.3,60.183003910033364,
left,go,1,0,1,0,0,0,0,1,454.05902791023254,None,1,16.03726315498352,454.05902791023254,None,470.20812582969666,None,471.2083840370178,471.55856585502625,471.2083840370178,471.55856585502625,470.20812582969666,None,470.20812582969666,None,470.20812582969666,None,,,0,False,-1.0,-1.0,-1,472.04087591171265,None,pp_12,icub,clamp,2021_Dec_22_1626,exp,2021.2.3,60.183003910033364,
right,stop,1,0,1,0,0,1,1,5,472.5665819644928,None,1,0.568073034286499,472.5665819644928,None,473.2415339946747,None,474.2482199668884,474.6074779033661,474.2482199668884,474.6074779033661,473.2415339946747,None,473.2415339946747,None,473.2415339946747,None,250,250,1,True,138.26727867126465,-1.0,-1,478.28674697875977,None,pp_12,icub,clamp,2021_Dec_22_1626,exp,2021.2.3,60.183003910033364,
left,go,1,0,1,0,0,2,2,1,478.7802619934082,None,1,0.5454449653625488,478.7802619934082,None,479.45525193214417,None,480.44076800346375,480.7685990333557,480.44076800346375,480.7685990333557,479.45525193214417,None,479.45525193214417,None,479.45525193214417,None,-1,-1,1,True,307.8272342681885,363.478422164917,left,482.0250518321991,None,pp_12,icub,clamp,2021_Dec_22_1626,exp,2021.2.3,60.183003910033364,
left,go,1,0,1,0,0,3,3,0,482.52321004867554,None,1,1.3764619827270508,482.52321004867554,None,483.99423694610596,None,485.0156509876251,485.3765869140625,485.0156509876251,485.3765869140625,483.99423694610596,None,483.99423694610596,None,483.99423694610596,None,-1,-1,1,True,244.41146850585938,388.3099555969238,left,486.4952549934387,None,pp_12,icub,clamp,2021_Dec_22_1626,exp,2021.2.3,60.183003910033364,
right,stop,1,0,1,0,0,4,4,5,487.00568985939026,None,1,1.0253138542175293,487.00568985939026,None,488.1066188812256,None,489.1203179359436,489.4531989097595,489.1203179359436,489.4531989097595,488.1066188812256,None,488.1066188812256,None,488.1066188812256,None,250,300,1,True,204.71978187561035,-1.0,-1,493.18469405174255,None,pp_12,icub,clamp,2021_Dec_22_1626,exp,2021.2.3,60.183003910033364,
left,go,1,0,1,0,0,5,5,0,493.7154860496521,None,1,0.5051789283752441,493.7154860496521,None,494.3296790122986,None,495.3373930454254,495.70537090301514,495.3373930454254,495.70537090301514,494.3296790122986,None,494.3296790122986,None,494.3296790122986,None,,,0,False,-1.0,-1.0,-1,496.19874691963196,None,pp_12,icub,clamp,2021_Dec_22_1626,exp,2021.2.3,60.183003910033364,
right,go,1,0,1,0,1,0,6,3,496.69300985336304,None,1,0.6206309795379639,496.69300985336304,None,497.42957496643066,None,498.4107370376587,498.7615599632263,498.4107370376587,498.7615599632263,497.42957496643066,None,497.42957496643066,None,497.42957496643066,None,-1,-1,1,True,257.5690746307373,395.54548263549805,right,499.98404002189636,None,pp_12,icub,clamp,2021_Dec_22_1626,exp,2021.2.3,60.183003910033364,
left,go,1,0,1,0,1,1,7,1,500.48241996765137,None,1,0.5700430870056152,500.48241996765137,None,501.14318895339966,None,502.1335759162903,502.4732859134674,502.1335759162903,502.4732859134674,501.14318895339966,None,501.14318895339966,None,501.14318895339966,None,-1,-1,1,True,273.30923080444336,366.4863109588623,left,503.66278195381165,None,pp_12,icub,clamp,2021_Dec_22_1626,exp,2021.2.3,60.183003910033364,
right,stop,1,0,1,0,1,2,8,5,504.17974400520325,None,1,0.3662550449371338,504.17974400520325,None,504.6597378253937,None,505.6734209060669,506.02926802635193,505.6734209060669,506.02926802635193,504.6597378253937,None,504.6597378253937,None,504.6597378253937,None,250,350,0,True,194.6251392364502,372.15662002563477,right,507.13090991973877,None,pp_12,icub,clamp,2021_Dec_22_1626,exp,2021.2.3,60.183003910033364,
right,go,1,0,1,0,1,3,9,3,507.64829182624817,None,1,0.684769868850708,507.64829182624817,None,508.4382309913635,None,509.44021105766296,509.7909119129181,509.44021105766296,509.7909119129181,508.4382309913635,None,508.4382309913635,None,508.4382309913635,None,-1,-1,1,True,257.89594650268555,444.8118209838867,right,511.02983689308167,None,pp_12,icub,clamp,2021_Dec_22_1626,exp,2021.2.3,60.183003910033364,
left,stop,1,0,1,0,1,4,10,2,511.5357038974762,None,1,0.07779288291931152,511.5357038974762,None,511.7082769870758,None,512.7226648330688,513.0752160549164,512.7226648330688,513.0752160549164,511.7082769870758,None,511.7082769870758,None,511.7082769870758,None,250,300,0,True,278.8553237915039,327.7449607849121,left,514.2126410007477,None,pp_12,icub,clamp,2021_Dec_22_1626,exp,2021.2.3,60.183003910033364,
right,stop,1,0,1,0,1,5,11,5,514.7156748771667,None,1,0.0869438648223877,514.7156748771667,None,514.8882169723511,None,515.88023686409,516.2425639629364,515.88023686409,516.2425639629364,514.8882169723511,None,514.8882169723511,None,514.8882169723511,None,200,300,1,True,252.52795219421387,-1.0,-1,520.0340800285339,None,pp_12,icub,clamp,2021_Dec_22_1626,exp,2021.2.3,60.183003910033364,
left,go,1,0,1,0,2,0,12,1,520.529443025589,None,1,0.5320558547973633,520.529443025589,None,521.1406450271606,None,522.1475648880005,522.4880239963531,522.1475648880005,522.4880239963531,521.1406450271606,None,521.1406450271606,None,521.1406450271606,None,-1,-1,1,True,61.6450309753418,514.0583515167236,left,523.6156580448151,None,pp_12,icub,clamp,2021_Dec_22_1626,exp,2021.2.3,60.183003910033364,
right,go,1,0,1,0,2,1,13,4,524.118978023529,None,1,0.242203950881958,524.118978023529,None,524.475172996521,None,525.486389875412,525.8404068946838,525.486389875412,525.8404068946838,524.475172996521,None,524.475172996521,None,524.475172996521,None,,,0,False,-1.0,-1.0,-1,526.2940118312836,None,pp_12,icub,clamp,2021_Dec_22_1626,exp,2021.2.3,60.183003910033364,
left,go,1,0,1,0,2,2,14,0,526.789598941803,None,1,0.4819490909576416,526.789598941803,None,527.4020600318909,None,528.383749961853,528.7482178211212,528.383749961853,528.7482178211212,527.4020600318909,None,527.4020600318909,None,527.4020600318909,None,-1,-1,1,True,302.7324676513672,443.09425354003906,left,530.0281360149384,None,pp_12,icub,clamp,2021_Dec_22_1626,exp,2021.2.3,60.183003910033364,
right,go,1,0,1,0,2,3,15,4,530.5490758419037,None,1,0.2269730567932129,530.5490758419037,None,530.9048209190369,None,531.9397919178009,532.265960931778,531.9397919178009,532.265960931778,530.9048209190369,None,530.9048209190369,None,530.9048209190369,None,-1,-1,1,True,273.13685417175293,570.0254440307617,right,533.6243369579315,None,pp_12,icub,clamp,2021_Dec_22_1626,exp,2021.2.3,60.183003910033364,
right,go,1,0,1,0,2,4,16,4,534.126452922821,None,1,0.6553909778594971,534.126452922821,None,534.8573620319366,None,535.853353023529,536.1942369937897,535.853353023529,536.1942369937897,534.8573620319366,None,534.8573620319366,None,534.8573620319366,None,-1,-1,1,True,250.2131462097168,449.0330219268799,right,537.4436898231506,None,pp_12,icub,clamp,2021_Dec_22_1626,exp,2021.2.3,60.183003910033364,
left,go,1,0,1,0,2,5,17,1,537.9767589569092,None,1,0.06659793853759766,537.9767589569092,None,538.147570848465,None,539.1674180030823,539.5299799442291,539.1674180030823,539.5299799442291,538.147570848465,None,538.147570848465,None,538.147570848465,None,-1,-1,1,True,257.29966163635254,421.8919277191162,left,540.7012388706207,None,pp_12,icub,clamp,2021_Dec_22_1626,exp,2021.2.3,60.183003910033364,
left,go,1,0,1,0,3,0,18,0,541.2355518341064,None,1,0.9831469058990479,541.2355518341064,None,542.3382070064545,None,543.3596060276031,543.7203669548035,543.3596060276031,543.7203669548035,542.3382070064545,None,542.3382070064545,None,542.3382070064545,None,-1,-1,1,True,299.0589141845703,419.1446304321289,left,544.9566938877106,None,pp_12,icub,clamp,2021_Dec_22_1626,exp,2021.2.3,60.183003910033364,
right,stop,1,0,1,0,3,1,19,5,545.4739918708801,None,1,0.21918010711669922,545.4739918708801,None,545.7686839103699,None,546.7970418930054,547.1490368843079,546.7970418930054,547.1490368843079,545.7686839103699,None,545.7686839103699,None,545.7686839103699,None,200,350,0,True,206.1922550201416,415.45796394348145,right,548.3026468753815,None,pp_12,icub,clamp,2021_Dec_22_1626,exp,2021.2.3,60.183003910033364,
right,go,1,0,1,0,3,2,20,3,548.8264439105988,None,1,0.7187230587005615,548.8264439105988,None,549.6781089305878,None,550.702586889267,551.0562078952789,550.702586889267,551.0562078952789,549.6781089305878,None,549.6781089305878,None,549.6781089305878,None,-1,-1,0,False,208.39834213256836,592.475414276123,left,552.3773698806763,None,pp_12,icub,clamp,2021_Dec_22_1626,exp,2021.2.3,60.183003910033364,
left,stop,1,0,1,0,3,3,21,2,552.9114558696747,None,1,0.5216739177703857,552.9114558696747,None,553.5185399055481,None,554.5272018909454,554.8923799991608,554.5272018909454,554.8923799991608,553.5185399055481,None,553.5185399055481,None,553.5185399055481,None,200,300,1,True,270.277738571167,-1.0,-1,558.7028930187225,None,pp_12,icub,clamp,2021_Dec_22_1626,exp,2021.2.3,60.183003910033364,
left,go,1,0,1,0,3,4,22,0,559.1978099346161,None,1,1.1946990489959717,559.1978099346161,None,560.4924869537354,None,561.499913930893,561.8605020046234,561.499913930893,561.8605020046234,560.4924869537354,None,560.4924869537354,None,560.4924869537354,None,-1,-1,1,True,236.54556274414062,577.2769451141357,left,563.2025680541992,None,pp_12,icub,clamp,2021_Dec_22_1626,exp,2021.2.3,60.183003910033364,
right,stop,1,0,1,0,3,5,23,5,563.7147679328918,None,1,0.8604340553283691,563.7147679328918,None,564.6892008781433,None,565.705169916153,566.0688760280609,565.705169916153,566.0688760280609,564.6892008781433,None,564.6892008781433,None,564.6892008781433,None,250,300,1,True,200.64330101013184,-1.0,-1,569.7626149654388,None,pp_12,icub,clamp,2021_Dec_22_1626,exp,2021.2.3,60.183003910033364,
right,stop,1,0,1,0,4,0,24,5,570.295492887497,None,1,2.565018892288208,570.295492887497,None,572.9642648696899,None,573.9499049186707,574.3144998550415,573.9499049186707,574.3144998550415,572.9642648696899,None,572.9642648696899,None,572.9642648696899,None,250,350,0,True,104.21538352966309,417.41299629211426,right,575.3723938465118,None,pp_12,icub,clamp,2021_Dec_22_1626,exp,2021.2.3,60.183003910033364,
right,go,1,0,1,0,4,1,25,4,575.8880438804626,None,1,0.5371119976043701,575.8880438804626,None,576.5534448623657,None,577.5581638813019,577.8989949226379,577.5581638813019,577.8989949226379,576.5534448623657,None,576.5534448623657,None,576.5534448623657,None,-1,-1,1,True,292.07468032836914,418.55883598327637,right,579.1386840343475,None,pp_12,icub,clamp,2021_Dec_22_1626,exp,2021.2.3,60.183003910033364,
right,go,1,0,1,0,4,2,26,4,579.6516938209534,None,1,0.2626028060913086,579.6516938209534,None,580.0072648525238,None,581.0004160404205,581.3492789268494,581.0004160404205,581.3492789268494,580.0072648525238,None,580.0072648525238,None,580.0072648525238,None,-1,-1,1,True,220.43728828430176,414.5350456237793,right,582.5492298603058,None,pp_12,icub,clamp,2021_Dec_22_1626,exp,2021.2.3,60.183003910033364,
left,stop,1,0,1,0,4,3,27,2,583.0709140300751,None,1,0.05976986885070801,583.0709140300751,None,583.2412118911743,None,584.2732729911804,584.6345570087433,584.2732729911804,584.6345570087433,583.2412118911743,None,583.2412118911743,None,583.2412118911743,None,250,300,0,True,298.0377674102783,435.00804901123047,left,585.8592209815979,None,pp_12,icub,clamp,2021_Dec_22_1626,exp,2021.2.3,60.183003910033364,
left,go,1,0,1,0,4,4,28,0,586.3704500198364,None,1,0.3503379821777344,586.3704500198364,None,586.8492670059204,None,587.8672950267792,588.2238290309906,587.8672950267792,588.2238290309906,586.8492670059204,None,586.8492670059204,None,586.8492670059204,None,-1,-1,1,True,99.11394119262695,738.2683753967285,left,589.5890598297119,None,pp_12,icub,clamp,2021_Dec_22_1626,exp,2021.2.3,60.183003910033364,
left,stop,1,0,1,0,4,5,29,2,590.0929908752441,None,1,0.12476015090942383,590.0929908752441,None,590.3240580558777,None,591.3536858558655,591.7018840312958,591.3536858558655,591.7018840312958,590.3240580558777,None,590.3240580558777,None,590.3240580558777,None,200,300,1,True,202.21424102783203,-1.0,-1,595.4244320392609,None,pp_12,icub,clamp,2021_Dec_22_1626,exp,2021.2.3,60.183003910033364,
right,go,1,0,1,0,5,0,30,3,595.9566328525543,None,1,1.1086699962615967,595.9566328525543,None,597.1894769668579,None,598.1681189537048,598.5316128730774,598.1681189537048,598.5316128730774,597.1894769668579,None,597.1894769668579,None,597.1894769668579,None,,,0,False,-1.0,-1.0,-1,599.0503659248352,None,pp_12,icub,clamp,2021_Dec_22_1626,exp,2021.2.3,60.183003910033364,
right,go,1,0,1,0,5,1,31,3,599.5811860561371,None,1,0.2840738296508789,599.5811860561371,None,599.9456279277802,None,600.9297699928284,601.2757680416107,600.9297699928284,601.2757680416107,599.9456279277802,None,599.9456279277802,None,599.9456279277802,None,-1,-1,1,True,241.20664596557617,399.7213840484619,right,602.4547109603882,None,pp_12,icub,clamp,2021_Dec_22_1626,exp,2021.2.3,60.183003910033364,
right,stop,1,0,1,0,5,2,32,5,602.9741349220276,None,1,0.7810530662536621,602.9741349220276,None,603.8822498321533,None,604.8691680431366,605.214870929718,604.8691680431366,605.214870929718,603.8822498321533,None,603.8822498321533,None,603.8822498321533,None,250,300,1,True,710.9899520874023,-1.0,-1,609.4715328216553,None,pp_12,icub,clamp,2021_Dec_22_1626,exp,2021.2.3,60.183003910033364,
left,stop,1,0,1,0,5,3,33,2,610.0037398338318,None,1,2.771481990814209,610.0037398338318,None,612.9064218997955,None,613.8804860115051,614.242614030838,613.8804860115051,614.242614030838,612.9064218997955,None,612.9064218997955,None,612.9064218997955,None,250,350,1,True,266.22605323791504,-1.0,-1,618.0392570495605,None,pp_12,icub,clamp,2021_Dec_22_1626,exp,2021.2.3,60.183003910033364,
left,stop,1,0,1,0,5,4,34,2,618.5705678462982,None,1,0.3225560188293457,618.5705678462982,None,618.9973468780518,None,619.9799818992615,620.3441569805145,619.9799818992615,620.3441569805145,618.9973468780518,None,618.9973468780518,None,618.9973468780518,None,300,350,0,True,211.58766746520996,363.034725189209,left,621.4571709632874,None,pp_12,icub,clamp,2021_Dec_22_1626,exp,2021.2.3,60.183003910033364,
left,go,1,0,1,0,5,5,35,1,621.9657299518585,None,1,0.6549351215362549,621.9657299518585,None,622.6963558197021,None,623.7175738811493,624.0547888278961,623.7175738811493,624.0547888278961,622.6963558197021,None,622.6963558197021,None,622.6963558197021,None,-1,-1,1,True,260.71882247924805,400.8808135986328,left,625.2633979320526,None,pp_12,icub,clamp,2021_Dec_22_1626,exp,2021.2.3,60.183003910033364,
left,go,1,0,1,0,6,0,36,0,625.7941529750824,None,1,0.011456012725830078,625.7941529750824,None,625.9025750160217,None,626.9148869514465,627.2651998996735,626.9148869514465,627.2651998996735,625.9025750160217,None,625.9025750160217,None,625.9025750160217,None,-1,-1,1,True,249.49932098388672,390.98525047302246,left,628.4181959629059,None,pp_12,icub,clamp,2021_Dec_22_1626,exp,2021.2.3,60.183003910033364,
right,stop,1,0,1,0,6,1,37,5,628.9393589496613,None,1,2.2187788486480713,628.9393589496613,None,631.273519039154,None,632.2601878643036,632.6111259460449,632.2601878643036,632.6111259460449,631.273519039154,None,631.273519039154,None,631.273519039154,None,250,350,1,True,61.586856842041016,-1.0,-1,636.2364609241486,None,pp_12,icub,clamp,2021_Dec_22_1626,exp,2021.2.3,60.183003910033364,
left,stop,1,0,1,0,6,2,38,2,636.76735496521,None,1,0.627755880355835,636.76735496521,None,637.5023920536041,None,638.4881670475006,638.8266348838806,638.4881670475006,638.8266348838806,637.5023920536041,None,637.5023920536041,None,637.5023920536041,None,250,400,0,True,225.02923011779785,350.22592544555664,left,639.9820258617401,None,pp_12,icub,clamp,2021_Dec_22_1626,exp,2021.2.3,60.183003910033364,
right,go,1,0,1,0,6,3,39,3,640.4773769378662,None,1,0.5424652099609375,640.4773769378662,None,641.140077829361,None,642.1575059890747,642.5105938911438,642.1575059890747,642.5105938911438,641.140077829361,None,641.140077829361,None,641.140077829361,None,-1,-1,1,True,432.2969913482666,749.5219707489014,right,644.2265729904175,None,pp_12,icub,clamp,2021_Dec_22_1626,exp,2021.2.3,60.183003910033364,
right,go,1,0,1,0,6,4,40,3,644.7375140190125,None,1,0.28907108306884766,644.7375140190125,None,645.1551849842072,None,646.1638388633728,646.5176389217377,646.1638388633728,646.5176389217377,645.1551849842072,None,645.1551849842072,None,645.1551849842072,None,-1,-1,1,True,294.2700386047363,395.0929641723633,right,647.7240128517151,None,pp_12,icub,clamp,2021_Dec_22_1626,exp,2021.2.3,60.183003910033364,
right,go,1,0,1,0,6,5,41,3,648.2389779090881,None,1,1.1710529327392578,648.2389779090881,None,649.5217649936676,None,650.5262169837952,650.8799059391022,650.5262169837952,650.8799059391022,649.5217649936676,None,649.5217649936676,None,649.5217649936676,None,-1,-1,1,True,257.01260566711426,426.38254165649414,right,652.0902209281921,None,pp_12,icub,clamp,2021_Dec_22_1626,exp,2021.2.3,60.183003910033364,
left,stop,1,0,1,0,7,0,42,2,652.5899839401245,None,1,0.15174603462219238,652.5899839401245,None,652.8223030567169,None,653.8244168758392,654.1717779636383,653.8244168758392,654.1717779636383,652.8223030567169,None,652.8223030567169,None,652.8223030567169,None,200,400,1,True,261.01088523864746,-1.0,-1,657.960394859314,None,pp_12,icub,clamp,2021_Dec_22_1626,exp,2021.2.3,60.183003910033364,
right,stop,1,0,1,0,7,1,43,5,658.4929480552673,None,1,0.607079029083252,658.4929480552673,None,659.2289760112762,None,660.2377920150757,660.6066420078278,660.2377920150757,660.6066420078278,659.2289760112762,None,659.2289760112762,None,659.2289760112762,None,250,400,0,True,256.78253173828125,357.89036750793457,right,661.7131769657135,None,pp_12,icub,clamp,2021_Dec_22_1626,exp,2021.2.3,60.183003910033364,
left,go,1,0,1,0,7,2,44,0,662.2215549945831,None,1,0.5354430675506592,662.2215549945831,None,662.8860378265381,None,663.8965389728546,664.2575249671936,663.8965389728546,664.2575249671936,662.8860378265381,None,662.8860378265381,None,662.8860378265381,None,-1,-1,1,True,263.7956142425537,430.9277534484863,left,665.4793150424957,None,pp_12,icub,clamp,2021_Dec_22_1626,exp,2021.2.3,60.183003910033364,
right,go,1,0,1,0,7,3,45,4,666.0167248249054,None,1,0.07843494415283203,666.0167248249054,None,666.1859250068665,None,667.2053010463715,667.5654239654541,667.2053010463715,667.5654239654541,666.1859250068665,None,666.1859250068665,None,666.1859250068665,None,-1,-1,1,True,134.68360900878906,405.5352210998535,right,668.6267609596252,None,pp_12,icub,clamp,2021_Dec_22_1626,exp,2021.2.3,60.183003910033364,
left,go,1,0,1,0,7,4,46,1,669.1606140136719,None,1,1.7399799823760986,669.1606140136719,None,671.0071070194244,None,672.0107529163361,672.3518290519714,672.0107529163361,672.3518290519714,671.0071070194244,None,671.0071070194244,None,671.0071070194244,None,,,0,False,-1.0,-1.0,-1,672.7926108837128,None,pp_12,icub,clamp,2021_Dec_22_1626,exp,2021.2.3,60.183003910033364,
right,go,1,0,1,0,7,5,47,4,673.3234958648682,None,1,0.31156206130981445,673.3234958648682,None,673.7506370544434,None,674.7336330413818,675.098582983017,674.7336330413818,675.098582983017,673.7506370544434,None,673.7506370544434,None,673.7506370544434,None,-1,-1,1,True,305.311918258667,776.2150764465332,right,676.7172889709473,None,pp_12,icub,clamp,2021_Dec_22_1626,exp,2021.2.3,60.183003910033364,
right,go,1,0,1,0,8,0,48,4,677.2176208496094,None,1,0.4002039432525635,677.2176208496094,None,677.6984510421753,None,678.7234108448029,679.0690829753876,678.7234108448029,679.0690829753876,677.6984510421753,None,677.6984510421753,None,677.6984510421753,None,-1,-1,1,True,243.10970306396484,388.2131576538086,right,680.2210628986359,None,pp_12,icub,clamp,2021_Dec_22_1626,exp,2021.2.3,60.183003910033364,
left,go,1,0,1,0,8,1,49,0,680.7334399223328,None,1,0.09102797508239746,680.7334399223328,None,680.9047780036926,None,681.9009799957275,682.2540919780731,681.9009799957275,682.2540919780731,680.9047780036926,None,680.9047780036926,None,680.9047780036926,None,,,0,False,-1.0,-1.0,-1,682.7704839706421,None,pp_12,icub,clamp,2021_Dec_22_1626,exp,2021.2.3,60.183003910033364,
left,stop,1,0,1,0,8,2,50,2,683.2993030548096,None,1,0.4246480464935303,683.2993030548096,None,683.8493409156799,None,684.820102930069,685.1752598285675,684.820102930069,685.1752598285675,683.8493409156799,None,683.8493409156799,None,683.8493409156799,None,250,350,0,True,323.82678985595703,377.943754196167,left,686.4529318809509,None,pp_12,icub,clamp,2021_Dec_22_1626,exp,2021.2.3,60.183003910033364,
left,go,1,0,1,0,8,3,51,1,686.9658629894257,None,1,0.47339391708374023,686.9658629894257,None,687.567225933075,None,688.5763318538666,688.9042348861694,688.5763318538666,688.9042348861694,687.567225933075,None,687.567225933075,None,687.567225933075,None,-1,-1,1,True,253.11541557312012,354.7937870025635,left,690.0833070278168,None,pp_12,icub,clamp,2021_Dec_22_1626,exp,2021.2.3,60.183003910033364,
left,stop,1,0,1,0,8,4,52,2,690.6056220531464,None,1,0.23107290267944336,690.6056220531464,None,690.9597089290619,None,691.9556708335876,692.3056190013885,691.9556708335876,692.3056190013885,690.9597089290619,None,690.9597089290619,None,690.9597089290619,None,200,350,1,True,244.41051483154297,-1.0,-1,696.1057348251343,None,pp_12,icub,clamp,2021_Dec_22_1626,exp,2021.2.3,60.183003910033364,
right,go,1,0,1,0,8,5,53,3,696.6373660564423,None,1,0.6465508937835693,696.6373660564423,None,697.3737049102783,None,698.3527820110321,698.7169919013977,698.3527820110321,698.7169919013977,697.3737049102783,None,697.3737049102783,None,697.3737049102783,None,-1,-1,1,True,282.7115058898926,311.6157054901123,right,699.8424689769745,None,pp_12,icub,clamp,2021_Dec_22_1626,exp,2021.2.3,60.183003910033364,
right,go,1,0,1,0,9,0,54,3,700.3673279285431,None,1,0.3203110694885254,700.3673279285431,None,700.7886970043182,None,701.8191590309143,702.1803848743439,701.8191590309143,702.1803848743439,700.7886970043182,None,700.7886970043182,None,700.7886970043182,None,-1,-1,1,True,216.6767120361328,318.4216022491455,right,703.2047898769379,None,pp_12,icub,clamp,2021_Dec_22_1626,exp,2021.2.3,60.183003910033364,
right,go,1,0,1,0,9,1,55,3,703.7225639820099,None,1,1.299340009689331,703.7225639820099,None,705.1498880386353,None,706.1322939395905,706.5001769065857,706.1322939395905,706.5001769065857,705.1498880386353,None,705.1498880386353,None,705.1498880386353,None,,,0,False,-1.0,-1.0,-1,706.9451959133148,None,pp_12,icub,clamp,2021_Dec_22_1626,exp,2021.2.3,60.183003910033364,
right,go,1,0,1,0,9,2,56,4,707.4393739700317,None,1,0.44956302642822266,707.4393739700317,None,707.9891648292542,None,708.9852108955383,709.3508169651031,708.9852108955383,709.3508169651031,707.9891648292542,None,707.9891648292542,None,707.9891648292542,None,-1,-1,1,True,328.98879051208496,359.74621772766113,right,710.5672359466553,None,pp_12,icub,clamp,2021_Dec_22_1626,exp,2021.2.3,60.183003910033364,
left,go,1,0,1,0,9,3,57,0,711.08931183815,None,1,0.617185115814209,711.08931183815,None,711.8156218528748,None,712.8354358673096,713.1941349506378,712.8354358673096,713.1941349506378,711.8156218528748,None,711.8156218528748,None,711.8156218528748,None,-1,-1,1,True,221.44317626953125,674.1001605987549,left,714.6069068908691,None,pp_12,icub,clamp,2021_Dec_22_1626,exp,2021.2.3,60.183003910033364,
left,go,1,0,1,0,9,4,58,1,715.1363730430603,None,1,0.14883995056152344,715.1363730430603,None,715.3696889877319,None,716.3963959217072,716.7487568855286,716.3963959217072,716.7487568855286,715.3696889877319,None,715.3696889877319,None,715.3696889877319,None,-1,-1,1,True,401.0751247406006,1797.0163822174072,left,719.4688529968262,None,pp_12,icub,clamp,2021_Dec_22_1626,exp,2021.2.3,60.183003910033364,
left,stop,1,0,1,0,9,5,59,2,719.9748430252075,None,1,0.09750580787658691,719.9748430252075,None,720.1476490497589,None,721.142175912857,721.5047838687897,721.142175912857,721.5047838687897,720.1476490497589,None,720.1476490497589,None,720.1476490497589,None,250,350,0,True,310.9614849090576,401.4596939086914,left,722.7551648616791,None,pp_12,icub,clamp,2021_Dec_22_1626,exp,2021.2.3,60.183003910033364,
left,stop,1,0,1,0,10,0,60,2,723.2618958950043,None,1,0.05360603332519531,723.2618958950043,None,723.4343400001526,None,724.452262878418,724.8020348548889,724.452262878418,724.8020348548889,723.4343400001526,None,723.4343400001526,None,723.4343400001526,None,,,0,False,3000.7388591766357,-1.0,-1,728.3299980163574,None,pp_12,icub,clamp,2021_Dec_22_1626,exp,2021.2.3,60.183003910033364,
right,stop,1,0,1,0,10,1,61,5,728.8607249259949,None,1,3.6554970741271973,728.8607249259949,None,732.622948884964,None,733.6549608707428,734.0124678611755,733.6549608707428,734.0124678611755,732.622948884964,None,732.622948884964,None,732.622948884964,None,200,350,0,True,289.3335819244385,345.9362983703613,right,735.1367230415344,None,pp_12,icub,clamp,2021_Dec_22_1626,exp,2021.2.3,60.183003910033364,
right,go,1,0,1,0,10,2,62,4,735.6361260414124,None,1,0.12405896186828613,735.6361260414124,None,735.8712768554688,None,736.8684759140015,737.2224838733673,736.8684759140015,737.2224838733673,735.8712768554688,None,735.8712768554688,None,735.8712768554688,None,-1,-1,1,True,307.5075149536133,328.2630443572998,right,738.3890130519867,None,pp_12,icub,clamp,2021_Dec_22_1626,exp,2021.2.3,60.183003910033364,
left,stop,1,0,1,0,10,3,63,2,738.9071128368378,None,1,0.015173196792602539,738.9071128368378,None,739.0170290470123,None,740.0170538425446,740.369010925293,740.0170538425446,740.369010925293,739.0170290470123,None,739.0170290470123,None,739.0170290470123,None,200,300,1,True,233.02102088928223,-1.0,-1,744.1321158409119,None,pp_12,icub,clamp,2021_Dec_22_1626,exp,2021.2.3,60.183003910033364,
right,stop,1,0,1,0,10,4,64,5,744.664165019989,None,1,0.626518964767456,744.664165019989,None,745.4011340141296,None,746.3860018253326,746.7344110012054,746.3860018253326,746.7344110012054,745.4011340141296,None,745.4011340141296,None,745.4011340141296,None,250,300,0,True,176.76067352294922,368.7455654144287,right,747.8437879085541,None,pp_12,icub,clamp,2021_Dec_22_1626,exp,2021.2.3,60.183003910033364,
left,go,1,0,1,0,10,5,65,0,748.3739960193634,None,1,0.31321001052856445,748.3739960193634,None,748.7912929058075,None,749.7986409664154,750.1573729515076,749.7986409664154,750.1573729515076,748.7912929058075,None,748.7912929058075,None,748.7912929058075,None,-1,-1,1,True,209.55181121826172,395.4885005950928,left,751.3011260032654,None,pp_12,icub,clamp,2021_Dec_22_1626,exp,2021.2.3,60.183003910033364,
left,go,1,0,1,0,11,0,66,1,751.8102898597717,None,1,0.7857961654663086,751.8102898597717,None,752.7198119163513,None,753.7435069084167,754.0947058200836,753.7435069084167,754.0947058200836,752.7198119163513,None,752.7198119163513,None,752.7198119163513,None,-1,-1,1,True,358.77513885498047,411.8473529815674,left,755.3988180160522,None,pp_12,icub,clamp,2021_Dec_22_1626,exp,2021.2.3,60.183003910033364,
left,go,1,0,1,0,11,1,67,1,755.9007449150085,None,1,1.5006229877471924,755.9007449150085,None,757.4965019226074,None,758.486340045929,758.8434729576111,758.486340045929,758.8434729576111,757.4965019226074,None,757.4965019226074,None,757.4965019226074,None,-1,-1,1,True,266.2475109100342,378.57627868652344,left,760.0099968910217,None,pp_12,icub,clamp,2021_Dec_22_1626,exp,2021.2.3,60.183003910033364,
right,stop,1,0,1,0,11,2,68,5,760.5318548679352,None,1,0.5324809551239014,760.5318548679352,None,761.1977219581604,None,762.1982679367065,762.5549399852753,762.1982679367065,762.5549399852753,761.1977219581604,None,761.1977219581604,None,761.1977219581604,None,250,250,1,True,193.9833164215088,-1.0,-1,766.269800901413,None,pp_12,icub,clamp,2021_Dec_22_1626,exp,2021.2.3,60.183003910033364,
left,go,1,0,1,0,11,3,69,0,766.8016028404236,None,1,1.9670000076293945,766.8016028404236,None,768.8991060256958,None,769.8825709819794,770.2387578487396,769.8825709819794,770.2387578487396,768.8991060256958,None,768.8991060256958,None,768.8991060256958,None,-1,-1,1,True,178.8954734802246,373.29721450805664,left,771.3187580108643,None,pp_12,icub,clamp,2021_Dec_22_1626,exp,2021.2.3,60.183003910033364,
right,go,1,0,1,0,11,4,70,4,771.8371510505676,None,1,0.3798220157623291,771.8371510505676,None,772.3076510429382,None,773.3196589946747,773.6730029582977,773.3196589946747,773.6730029582977,772.3076510429382,None,772.3076510429382,None,772.3076510429382,None,-1,-1,1,True,454.7758102416992,381.6201686859131,right,775.0436539649963,None,pp_12,icub,clamp,2021_Dec_22_1626,exp,2021.2.3,60.183003910033364,
left,go,1,0,1,0,11,5,71,1,775.5612778663635,None,1,0.1331470012664795,775.5612778663635,None,775.7869648933411,None,776.7799849510193,777.1250529289246,776.7799849510193,777.1250529289246,775.7869648933411,None,775.7869648933411,None,775.7869648933411,None,-1,-1,1,True,110.99743843078613,407.66453742980957,left,778.1798529624939,None,pp_12,icub,clamp,2021_Dec_22_1626,exp,2021.2.3,60.183003910033364,
right,go,1,0,1,0,12,0,72,4,778.6896159648895,None,1,0.401500940322876,778.6896159648895,None,779.1717088222504,None,780.1853728294373,780.527753829956,780.1853728294373,780.527753829956,779.1717088222504,None,779.1717088222504,None,779.1717088222504,None,-1,-1,1,True,89.06388282775879,591.0336971282959,right,781.7357749938965,None,pp_12,icub,clamp,2021_Dec_22_1626,exp,2021.2.3,60.183003910033364,
right,go,1,0,1,0,12,1,73,4,782.2392380237579,None,1,0.33887600898742676,782.2392380237579,None,782.6585700511932,None,783.6816208362579,784.050253868103,783.6816208362579,784.050253868103,782.6585700511932,None,782.6585700511932,None,782.6585700511932,None,-1,-1,1,True,96.92239761352539,537.4557971954346,right,785.1802380084991,None,pp_12,icub,clamp,2021_Dec_22_1626,exp,2021.2.3,60.183003910033364,
left,go,1,0,1,0,12,2,74,0,785.7128729820251,None,1,0.15866899490356445,785.7128729820251,None,785.9469199180603,None,786.9469208717346,787.2994010448456,786.9469208717346,787.2994010448456,785.9469199180603,None,785.9469199180603,None,785.9469199180603,None,-1,-1,1,True,253.71026992797852,455.308198928833,left,788.5611078739166,None,pp_12,icub,clamp,2021_Dec_22_1626,exp,2021.2.3,60.183003910033364,
right,go,1,0,1,0,12,3,75,3,789.0757539272308,None,1,0.1271049976348877,789.0757539272308,None,789.3009550571442,None,790.2974629402161,790.6508679389954,790.2974629402161,790.6508679389954,789.3009550571442,None,789.3009550571442,None,789.3009550571442,None,-1,-1,1,True,175.17852783203125,505.4936408996582,right,791.8545880317688,None,pp_12,icub,clamp,2021_Dec_22_1626,exp,2021.2.3,60.183003910033364,
right,go,1,0,1,0,12,4,76,3,792.3736808300018,None,1,0.2646510601043701,792.3736808300018,None,792.7126989364624,None,793.7300870418549,794.0778849124908,793.7300870418549,794.0778849124908,792.7126989364624,None,792.7126989364624,None,792.7126989364624,None,-1,-1,1,True,122.02954292297363,462.92996406555176,right,795.1829469203949,None,pp_12,icub,clamp,2021_Dec_22_1626,exp,2021.2.3,60.183003910033364,
left,go,1,0,1,0,12,5,77,1,795.6809630393982,None,1,0.07032895088195801,795.6809630393982,None,795.8515470027924,None,796.8651669025421,797.2222158908844,796.8651669025421,797.2222158908844,795.8515470027924,None,795.8515470027924,None,795.8515470027924,None,-1,-1,1,True,75.37412643432617,523.1156349182129,left,798.3532388210297,None,pp_12,icub,clamp,2021_Dec_22_1626,exp,2021.2.3,60.183003910033364,
left,go,2,0,2,0,0,0,0,1,816.4942760467529,None,1,25.606693029403687,816.4942760467529,None,842.1916048526764,None,843.2068889141083,843.5636649131775,843.2068889141083,843.5636649131775,842.1916048526764,None,842.1916048526764,None,842.1916048526764,None,,,0,False,-1.0,-1.0,-1,844.0479218959808,None,pp_12,icub,clamp,2021_Dec_22_1626,exp,2021.2.3,60.183003910033364,
left,go,2,0,2,0,0,1,1,1,844.5687808990479,None,1,0.28858113288879395,844.5687808990479,None,844.9948618412018,None,845.9926738739014,846.3372008800507,845.9926738739014,846.3372008800507,844.9948618412018,None,844.9948618412018,None,844.9948618412018,None,-1,-1,1,True,105.1483154296875,506.64687156677246,left,847.4753890037537,None,pp_12,icub,clamp,2021_Dec_22_1626,exp,2021.2.3,60.183003910033364,
right,go,2,0,2,0,0,2,2,3,847.9932389259338,None,1,0.4147028923034668,847.9932389259338,None,848.5107569694519,None,849.5263018608093,849.8759388923645,849.5263018608093,849.8759388923645,848.5107569694519,None,848.5107569694519,None,848.5107569694519,None,-1,-1,1,True,159.48152542114258,394.53959465026855,right,850.9622418880463,None,pp_12,icub,clamp,2021_Dec_22_1626,exp,2021.2.3,60.183003910033364,
left,go,2,0,2,0,0,3,3,0,851.4695148468018,None,1,0.18437910079956055,851.4695148468018,None,851.7650499343872,None,852.7694170475006,853.1123468875885,852.7694170475006,853.1123468875885,851.7650499343872,None,851.7650499343872,None,851.7650499343872,None,-1,-1,1,True,234.18164253234863,449.3720531463623,left,854.3603990077972,None,pp_12,icub,clamp,2021_Dec_22_1626,exp,2021.2.3,60.183003910033364,
right,stop,2,0,2,0,0,4,4,5,854.8892910480499,None,1,0.21963715553283691,854.8892910480499,None,855.1843738555908,None,856.2131779193878,856.5368280410767,856.2131779193878,856.5368280410767,855.1843738555908,None,855.1843738555908,None,855.1843738555908,None,250,300,1,True,93.65677833557129,-1.0,-1,860.1394710540771,None,pp_12,icub,clamp,2021_Dec_22_1626,exp,2021.2.3,60.183003910033364,
right,go,2,0,2,0,0,5,5,3,860.6632809638977,None,1,0.3900420665740967,860.6632809638977,None,861.1824150085449,None,862.1606228351593,862.5089950561523,862.1606228351593,862.5089950561523,861.1824150085449,None,861.1824150085449,None,861.1824150085449,None,-1,-1,1,True,214.6286964416504,410.9926223754883,right,863.7103099822998,None,pp_12,icub,clamp,2021_Dec_22_1626,exp,2021.2.3,60.183003910033364,
right,go,2,0,2,0,1,0,6,4,864.2216458320618,None,1,0.5243480205535889,864.2216458320618,None,864.8311688899994,None,865.8479909896851,866.1970949172974,865.8479909896851,866.1970949172974,864.8311688899994,None,864.8311688899994,None,864.8311688899994,None,-1,-1,1,True,82.15641975402832,451.16543769836426,right,867.2603068351746,None,pp_12,icub,clamp,2021_Dec_22_1626,exp,2021.2.3,60.183003910033364,
left,go,2,0,2,0,1,1,7,0,867.7656009197235,None,1,0.3814060688018799,867.7656009197235,None,868.2465100288391,None,869.2499158382416,869.6111650466919,869.2499158382416,869.6111650466919,868.2465100288391,None,868.2465100288391,None,868.2465100288391,None,-1,-1,1,True,269.5138454437256,642.0526504516602,left,871.0434119701385,None,pp_12,icub,clamp,2021_Dec_22_1626,exp,2021.2.3,60.183003910033364,
right,go,2,0,2,0,1,2,8,4,871.5647358894348,None,1,0.17881202697753906,871.5647358894348,None,871.8462228775024,None,872.8748290538788,873.2296738624573,872.8748290538788,873.2296738624573,871.8462228775024,None,871.8462228775024,None,871.8462228775024,None,-1,-1,1,True,327.8002738952637,620.225191116333,right,874.6921339035034,None,pp_12,icub,clamp,2021_Dec_22_1626,exp,2021.2.3,60.183003910033364,
left,go,2,0,2,0,1,3,9,0,875.2096779346466,None,1,0.11399722099304199,875.2096779346466,None,875.4432969093323,None,876.458557844162,876.8194439411163,876.458557844162,876.8194439411163,875.4432969093323,None,875.4432969093323,None,875.4432969093323,None,,,0,False,-1.0,-1.0,-1,877.2500560283661,None,pp_12,icub,clamp,2021_Dec_22_1626,exp,2021.2.3,60.183003910033364,
right,go,2,0,2,0,1,4,10,4,877.7445149421692,None,1,0.5007920265197754,877.7445149421692,None,878.3568148612976,None,879.3385729789734,879.6870729923248,879.3385729789734,879.6870729923248,878.3568148612976,None,878.3568148612976,None,878.3568148612976,None,-1,-1,1,True,238.01207542419434,932.0886135101318,right,881.4241869449615,None,pp_12,icub,clamp,2021_Dec_22_1626,exp,2021.2.3,60.183003910033364,
left,stop,2,0,2,0,1,5,11,2,881.9559078216553,None,1,0.15103793144226074,881.9559078216553,None,882.1923179626465,None,883.2123429775238,883.5688140392303,883.2123429775238,883.5688140392303,882.1923179626465,None,882.1923179626465,None,882.1923179626465,None,250,350,0,True,346.1763858795166,368.1519031524658,left,884.8175070285797,None,pp_12,icub,clamp,2021_Dec_22_1626,exp,2021.2.3,60.183003910033364,
right,go,2,0,2,0,2,0,12,4,885.3250670433044,None,1,0.7934999465942383,885.3250670433044,None,886.2399728298187,None,887.2325739860535,887.5749459266663,887.2325739860535,887.5749459266663,886.2399728298187,None,886.2399728298187,None,886.2399728298187,None,-1,-1,1,True,233.43396186828613,491.9106960296631,right,888.8753650188446,None,pp_12,icub,clamp,2021_Dec_22_1626,exp,2021.2.3,60.183003910033364,
left,go,2,0,2,0,2,1,13,0,889.3899898529053,None,1,0.10413789749145508,889.3899898529053,None,889.6226849555969,None,890.6241898536682,890.9706258773804,890.6241898536682,890.9706258773804,889.6226849555969,None,889.6226849555969,None,889.6226849555969,None,-1,-1,1,True,293.49207878112793,453.88007164001465,left,892.2678208351135,None,pp_12,icub,clamp,2021_Dec_22_1626,exp,2021.2.3,60.183003910033364,
right,go,2,0,2,0,2,2,14,3,892.7956240177155,None,1,0.12894392013549805,892.7956240177155,None,893.0288279056549,None,894.0504720211029,894.3989839553833,894.0504720211029,894.3989839553833,893.0288279056549,None,893.0288279056549,None,893.0288279056549,None,-1,-1,1,True,204.03361320495605,564.5451545715332,right,895.6771478652954,None,pp_12,icub,clamp,2021_Dec_22_1626,exp,2021.2.3,60.183003910033364,
left,stop,2,0,2,0,2,3,15,2,896.1822259426117,None,1,0.08874797821044922,896.1822259426117,None,896.3566608428955,None,897.3761160373688,897.7396049499512,897.3761160373688,897.7396049499512,896.3566608428955,None,896.3566608428955,None,896.3566608428955,None,200,350,0,True,220.0007438659668,366.457462310791,left,898.8182148933411,None,pp_12,icub,clamp,2021_Dec_22_1626,exp,2021.2.3,60.183003910033364,
left,go,2,0,2,0,2,4,16,1,899.3289120197296,None,1,1.4577500820159912,899.3289120197296,None,900.862359046936,None,901.8534939289093,902.2168469429016,901.8534939289093,902.2168469429016,900.862359046936,None,900.862359046936,None,900.862359046936,None,-1,-1,1,True,315.19603729248047,435.2874755859375,left,903.5051319599152,None,pp_12,icub,clamp,2021_Dec_22_1626,exp,2021.2.3,60.183003910033364,
right,go,2,0,2,0,2,5,17,3,903.9977588653564,None,1,3.138995885848999,903.9977588653564,None,907.2122550010681,None,908.2439248561859,908.5924339294434,908.2439248561859,908.5924339294434,907.2122550010681,None,907.2122550010681,None,907.2122550010681,None,-1,-1,1,True,238.72876167297363,513.0748748779297,right,909.8709259033203,None,pp_12,icub,clamp,2021_Dec_22_1626,exp,2021.2.3,60.183003910033364,
left,stop,2,0,2,0,3,0,18,2,910.3900458812714,None,1,2.1005029678344727,910.3900458812714,None,912.5912358760834,None,913.5874500274658,913.9420800209045,913.5874500274658,913.9420800209045,912.5912358760834,None,912.5912358760834,None,912.5912358760834,None,150,350,1,True,119.08841133117676,-1.0,-1,917.59472489357,None,pp_12,icub,clamp,2021_Dec_22_1626,exp,2021.2.3,60.183003910033364,
left,go,2,0,2,0,3,1,19,0,918.1263070106506,None,1,1.69980788230896,918.1263070106506,None,919.9135618209839,None,920.9068849086761,921.258544921875,920.9068849086761,921.258544921875,919.9135618209839,None,919.9135618209839,None,919.9135618209839,None,-1,-1,1,True,197.9391574859619,428.0822277069092,left,922.4391379356384,None,pp_12,icub,clamp,2021_Dec_22_1626,exp,2021.2.3,60.183003910033364,
right,stop,2,0,2,0,3,2,20,5,922.966824054718,None,1,0.2769451141357422,922.966824054718,None,923.3714509010315,None,924.3945789337158,924.7555768489838,924.3945789337158,924.7555768489838,923.3714509010315,None,923.3714509010315,None,923.3714509010315,None,200,350,1,True,267.7030563354492,-1.0,-1,928.5118038654327,None,pp_12,icub,clamp,2021_Dec_22_1626,exp,2021.2.3,60.183003910033364,
left,go,2,0,2,0,3,3,21,0,929.0446598529816,None,1,0.40131211280822754,929.0446598529816,None,929.5340900421143,None,930.5428650379181,930.8983998298645,930.5428650379181,930.8983998298645,929.5340900421143,None,929.5340900421143,None,929.5340900421143,None,-1,-1,1,True,125.72264671325684,479.1121482849121,left,932.0342040061951,None,pp_12,icub,clamp,2021_Dec_22_1626,exp,2021.2.3,60.183003910033364,
left,stop,2,0,2,0,3,4,22,2,932.552628993988,None,1,0.39772796630859375,932.552628993988,None,933.0357978343964,None,934.060662984848,934.423248052597,934.060662984848,934.423248052597,933.0357978343964,None,933.0357978343964,None,933.0357978343964,None,200,400,1,True,245.22995948791504,-1.0,-1,938.1528429985046,None,pp_12,icub,clamp,2021_Dec_22_1626,exp,2021.2.3,60.183003910033364,
left,go,2,0,2,0,3,5,23,1,938.685359954834,None,1,0.3975989818572998,938.685359954834,None,939.1757988929749,None,940.1595149040222,940.5126779079437,940.1595149040222,940.5126779079437,939.1757988929749,None,939.1757988929749,None,939.1757988929749,None,,,0,False,-1.0,-1.0,-1,940.858108997345,None,pp_12,icub,clamp,2021_Dec_22_1626,exp,2021.2.3,60.183003910033364,
right,stop,2,0,2,0,4,0,24,5,941.3509569168091,None,1,0.4929080009460449,941.3509569168091,None,941.964154958725,None,942.9484250545502,943.3005158901215,942.9484250545502,943.3005158901215,941.964154958725,None,941.964154958725,None,941.964154958725,None,250,400,0,True,230.88335990905762,411.44561767578125,right,944.5027220249176,None,pp_12,icub,clamp,2021_Dec_22_1626,exp,2021.2.3,60.183003910033364,
right,go,2,0,2,0,4,1,25,3,945.0112569332123,None,1,0.4873950481414795,945.0112569332123,None,945.6186549663544,None,946.6504008769989,946.998174905777,946.6504008769989,946.998174905777,945.6186549663544,None,945.6186549663544,None,945.6186549663544,None,-1,-1,1,True,252.16221809387207,500.4715919494629,right,948.2791159152985,None,pp_12,icub,clamp,2021_Dec_22_1626,exp,2021.2.3,60.183003910033364,
right,go,2,0,2,0,4,2,26,4,948.7844698429108,None,1,0.2899160385131836,948.7844698429108,None,949.2028639316559,None,950.217533826828,950.5672149658203,950.217533826828,950.5672149658203,949.2028639316559,None,949.2028639316559,None,949.2028639316559,None,-1,-1,1,True,253.0202865600586,380.51724433898926,right,951.7309758663177,None,pp_12,icub,clamp,2021_Dec_22_1626,exp,2021.2.3,60.183003910033364,
left,go,2,0,2,0,4,3,27,1,952.2575588226318,None,1,0.15093111991882324,952.2575588226318,None,952.4942719936371,None,953.5183968544006,953.8722469806671,953.5183968544006,953.8722469806671,952.4942719936371,None,952.4942719936371,None,952.4942719936371,None,-1,-1,1,True,135.22720336914062,460.6494903564453,left,954.9891710281372,None,pp_12,icub,clamp,2021_Dec_22_1626,exp,2021.2.3,60.183003910033364,
right,stop,2,0,2,0,4,4,28,5,955.4982569217682,None,1,0.6265108585357666,955.4982569217682,None,956.2262740135193,None,957.2298109531403,957.5838940143585,957.2298109531403,957.5838940143585,956.2262740135193,None,956.2262740135193,None,956.2262740135193,None,250,350,1,True,114.84146118164062,-1.0,-1,961.2462110519409,None,pp_12,icub,clamp,2021_Dec_22_1626,exp,2021.2.3,60.183003910033364,
left,stop,2,0,2,0,4,5,29,2,961.7789800167084,None,1,1.2738020420074463,961.7789800167084,None,963.13592004776,None,964.1078360080719,964.4506080150604,964.1078360080719,964.4506080150604,963.13592004776,None,963.13592004776,None,963.13592004776,None,250,400,1,True,241.40524864196777,-1.0,-1,968.2535769939423,None,pp_12,icub,clamp,2021_Dec_22_1626,exp,2021.2.3,60.183003910033364,
right,go,2,0,2,0,5,0,30,3,968.7876508235931,None,1,0.6180717945098877,968.7876508235931,None,969.5245659351349,None,970.5092890262604,970.8575048446655,970.5092890262604,970.8575048446655,969.5245659351349,None,969.5245659351349,None,969.5245659351349,None,-1,-1,1,True,68.6497688293457,614.0501499176025,right,972.0978729724884,None,pp_12,icub,clamp,2021_Dec_22_1626,exp,2021.2.3,60.183003910033364,
left,go,2,0,2,0,5,1,31,0,972.6160519123077,None,1,0.14136409759521484,972.6160519123077,None,972.8480470180511,None,973.8485560417175,974.2128050327301,973.8485560417175,974.2128050327301,972.8480470180511,None,972.8480470180511,None,972.8480470180511,None,-1,-1,1,True,279.860258102417,380.19323348999023,left,975.4029369354248,None,pp_12,icub,clamp,2021_Dec_22_1626,exp,2021.2.3,60.183003910033364,
left,go,2,0,2,0,5,2,32,1,975.9352788925171,None,1,0.08429408073425293,975.9352788925171,None,976.1042568683624,None,977.1067759990692,977.4534070491791,977.1067759990692,977.4534070491791,976.1042568683624,None,976.1042568683624,None,976.1042568683624,None,-1,-1,1,True,265.95544815063477,475.6500720977783,left,978.7199649810791,None,pp_12,icub,clamp,2021_Dec_22_1626,exp,2021.2.3,60.183003910033364,
left,go,2,0,2,0,5,3,33,0,979.2357280254364,None,1,0.13146185874938965,979.2357280254364,None,979.4683449268341,None,980.4806649684906,980.8267509937286,980.4806649684906,980.8267509937286,979.4683449268341,None,979.4683449268341,None,979.4683449268341,None,-1,-1,1,True,144.03271675109863,487.640380859375,left,981.9899480342865,None,pp_12,icub,clamp,2021_Dec_22_1626,exp,2021.2.3,60.183003910033364,
left,stop,2,0,2,0,5,4,34,2,982.4965679645538,None,1,0.1410839557647705,982.4965679645538,None,982.7283730506897,None,983.7221159934998,984.0854969024658,983.7221159934998,984.0854969024658,982.7283730506897,None,982.7283730506897,None,982.7283730506897,None,300,400,1,True,68.3295726776123,-1.0,-1,987.6971578598022,None,pp_12,icub,clamp,2021_Dec_22_1626,exp,2021.2.3,60.183003910033364,
left,stop,2,0,2,0,5,5,35,2,988.2304358482361,None,1,0.474254846572876,988.2304358482361,None,988.8436150550842,None,989.8429460525513,990.1915080547333,989.8429460525513,990.1915080547333,988.8436150550842,None,988.8436150550842,None,988.8436150550842,None,350,400,0,True,174.73363876342773,387.0511054992676,left,991.3038530349731,None,pp_12,icub,clamp,2021_Dec_22_1626,exp,2021.2.3,60.183003910033364,
right,go,2,0,2,0,6,0,36,4,991.8285439014435,None,1,0.11170506477355957,991.8285439014435,None,992.0598230361938,None,993.092845916748,993.4385118484497,993.092845916748,993.4385118484497,992.0598230361938,None,992.0598230361938,None,992.0598230361938,None,-1,-1,1,True,220.69120407104492,526.0794162750244,right,994.7202768325806,None,pp_12,icub,clamp,2021_Dec_22_1626,exp,2021.2.3,60.183003910033364,
left,go,2,0,2,0,6,1,37,0,995.2402968406677,None,1,0.23079991340637207,995.2402968406677,None,995.594743013382,None,996.6140279769897,996.9449188709259,996.6140279769897,996.9449188709259,995.594743013382,None,995.594743013382,None,995.594743013382,None,,,0,False,-1.0,-1.0,-1,997.4371318817139,None,pp_12,icub,clamp,2021_Dec_22_1626,exp,2021.2.3,60.183003910033364,
right,go,2,0,2,0,6,2,38,4,997.9648349285126,None,1,0.4837379455566406,997.9648349285126,None,998.5763099193573,None,999.5568459033966,999.9160208702087,999.5568459033966,999.9160208702087,998.5763099193573,None,998.5763099193573,None,998.5763099193573,None,-1,-1,1,True,120.1326847076416,1532.7732563018799,right,1002.1287589073181,None,pp_12,icub,clamp,2021_Dec_22_1626,exp,2021.2.3,60.183003910033364,
left,go,2,0,2,0,6,3,39,1,1002.6492128372192,None,1,0.2630338668823242,1002.6492128372192,None,1003.0029029846191,None,1004.0094909667969,1004.3386449813843,1004.0094909667969,1004.3386449813843,1003.0029029846191,None,1003.0029029846191,None,1003.0029029846191,None,-1,-1,1,True,55.03702163696289,536.4043712615967,left,1005.4862680435181,None,pp_12,icub,clamp,2021_Dec_22_1626,exp,2021.2.3,60.183003910033364,
right,stop,2,0,2,0,6,4,40,5,1005.9978678226471,None,1,0.07721900939941406,1005.9978678226471,None,1006.170795917511,None,1007.185760974884,1007.5485758781433,1007.185760974884,1007.5485758781433,1006.170795917511,None,1006.170795917511,None,1006.170795917511,None,300,400,0,True,260.7593536376953,480.9443950653076,right,1008.7855219841003,None,pp_12,icub,clamp,2021_Dec_22_1626,exp,2021.2.3,60.183003910033364,
right,stop,2,0,2,0,6,5,41,5,1009.3131680488586,None,1,0.38515591621398926,1009.3131680488586,None,1009.7940919399261,None,1010.8051519393921,1011.155513048172,1010.8051519393921,1011.155513048172,1009.7940919399261,None,1009.7940919399261,None,1009.7940919399261,None,300,350,1,True,31.043529510498047,-1.0,-1,1014.7174289226532,None,pp_12,icub,clamp,2021_Dec_22_1626,exp,2021.2.3,60.183003910033364,
right,go,2,0,2,0,7,0,42,3,1015.2124769687653,None,1,0.8019821643829346,1015.2124769687653,None,1016.1361000537872,None,1017.1443748474121,1017.4988508224487,1017.1443748474121,1017.4988508224487,1016.1361000537872,None,1016.1361000537872,None,1016.1361000537872,None,-1,-1,1,True,326.662540435791,434.5409870147705,right,1018.7890198230743,None,pp_12,icub,clamp,2021_Dec_22_1626,exp,2021.2.3,60.183003910033364,
left,go,2,0,2,0,7,1,43,0,1019.3067269325256,None,1,0.6399939060211182,1019.3067269325256,None,1020.0615029335022,None,1021.0768740177155,1021.4389250278473,1021.0768740177155,1021.4389250278473,1020.0615029335022,None,1020.0615029335022,None,1020.0615029335022,None,-1,-1,1,True,149.24001693725586,432.3890209197998,left,1022.5483689308167,None,pp_12,icub,clamp,2021_Dec_22_1626,exp,2021.2.3,60.183003910033364,
left,go,2,0,2,0,7,2,44,1,1023.0665910243988,None,1,0.6633939743041992,1023.0665910243988,None,1023.8398199081421,None,1024.8330008983612,1025.179671049118,1024.8330008983612,1025.179671049118,1023.8398199081421,None,1023.8398199081421,None,1023.8398199081421,None,-1,-1,1,True,249.8764991760254,421.1125373840332,left,1026.3839190006256,None,pp_12,icub,clamp,2021_Dec_22_1626,exp,2021.2.3,60.183003910033364,
right,stop,2,0,2,0,7,3,45,5,1026.9016318321228,None,1,0.34800100326538086,1026.9016318321228,None,1027.357097864151,None,1028.3769249916077,1028.7286920547485,1028.3769249916077,1028.7286920547485,1027.357097864151,None,1027.357097864151,None,1027.357097864151,None,300,400,0,True,246.81448936462402,479.0380001068115,right,1029.991278886795,None,pp_12,icub,clamp,2021_Dec_22_1626,exp,2021.2.3,60.183003910033364,
left,go,2,0,2,0,7,4,46,0,1030.5011548995972,None,1,0.6341261863708496,1030.5011548995972,None,1031.231204032898,None,1032.224455833435,1032.5872399806976,1032.224455833435,1032.5872399806976,1031.231204032898,None,1031.231204032898,None,1031.231204032898,None,-1,-1,1,True,360.23879051208496,433.47644805908203,left,1033.9206140041351,None,pp_12,icub,clamp,2021_Dec_22_1626,exp,2021.2.3,60.183003910033364,
left,stop,2,0,2,0,7,5,47,2,1034.4261329174042,None,1,0.4004628658294678,1034.4261329174042,None,1034.9392750263214,None,1035.9683680534363,1036.3273940086365,1035.9683680534363,1036.3273940086365,1034.9392750263214,None,1034.9392750263214,None,1034.9392750263214,None,300,350,0,True,283.34808349609375,383.0456733703613,left,1037.482409954071,None,pp_12,icub,clamp,2021_Dec_22_1626,exp,2021.2.3,60.183003910033364,
right,go,2,0,2,0,8,0,48,4,1037.9956798553467,None,1,0.40953993797302246,1037.9956798553467,None,1038.5334079265594,None,1039.5422849655151,1039.8819048404694,1039.5422849655151,1039.8819048404694,1038.5334079265594,None,1038.5334079265594,None,1038.5334079265594,None,-1,-1,1,True,305.558443069458,329.3757438659668,right,1041.0722169876099,None,pp_12,icub,clamp,2021_Dec_22_1626,exp,2021.2.3,60.183003910033364,
left,stop,2,0,2,0,8,1,49,2,1041.5825719833374,None,1,0.5190351009368896,1041.5825719833374,None,1042.1872308254242,None,1043.1850588321686,1043.5356879234314,1043.1850588321686,1043.5356879234314,1042.1872308254242,None,1042.1872308254242,None,1042.1872308254242,None,250,350,1,True,286.15474700927734,-1.0,-1,1047.346067905426,None,pp_12,icub,clamp,2021_Dec_22_1626,exp,2021.2.3,60.183003910033364,
right,go,2,0,2,0,8,2,50,4,1047.8783888816833,None,1,0.4320640563964844,1047.8783888816833,None,1048.4292168617249,None,1049.4145338535309,1049.7629790306091,1049.4145338535309,1049.7629790306091,1048.4292168617249,None,1048.4292168617249,None,1048.4292168617249,None,-1,-1,1,True,208.94455909729004,457.13138580322266,right,1050.9947729110718,None,pp_12,icub,clamp,2021_Dec_22_1626,exp,2021.2.3,60.183003910033364,
left,stop,2,0,2,0,8,3,51,2,1051.509703874588,None,1,0.5330748558044434,1051.509703874588,None,1052.118413925171,None,1053.1201150417328,1053.460923910141,1053.1201150417328,1053.460923910141,1052.118413925171,None,1052.118413925171,None,1052.118413925171,None,300,350,1,True,348.4077453613281,-1.0,-1,1057.3351509571075,None,pp_12,icub,clamp,2021_Dec_22_1626,exp,2021.2.3,60.183003910033364,
right,stop,2,0,2,0,8,4,52,5,1057.8726978302002,None,1,0.6156141757965088,1057.8726978302002,None,1058.6087310314178,None,1059.5962400436401,1059.9576179981232,1059.5962400436401,1059.9576179981232,1058.6087310314178,None,1058.6087310314178,None,1058.6087310314178,None,350,350,0,True,198.8046169281006,406.48627281188965,right,1061.1192858219147,None,pp_12,icub,clamp,2021_Dec_22_1626,exp,2021.2.3,60.183003910033364,
right,go,2,0,2,0,8,5,53,4,1061.620276927948,None,1,2.6836390495300293,1061.620276927948,None,1064.4233479499817,None,1065.4165530204773,1065.7780358791351,1065.4165530204773,1065.7780358791351,1064.4233479499817,None,1064.4233479499817,None,1064.4233479499817,None,-1,-1,1,True,237.90502548217773,460.8891010284424,right,1067.007642030716,None,pp_12,icub,clamp,2021_Dec_22_1626,exp,2021.2.3,60.183003910033364,
right,stop,2,0,2,0,9,0,54,5,1067.5183448791504,None,1,0.42676210403442383,1067.5183448791504,None,1068.0589900016785,None,1069.058053970337,1069.4216690063477,1069.058053970337,1069.4216690063477,1068.0589900016785,None,1068.0589900016785,None,1068.0589900016785,None,350,300,0,True,407.6704978942871,364.4895553588867,right,1070.726786851883,None,pp_12,icub,clamp,2021_Dec_22_1626,exp,2021.2.3,60.183003910033364,
left,go,2,0,2,0,9,1,55,1,1071.2414858341217,None,1,0.8861770629882812,1071.2414858341217,None,1072.2190499305725,None,1073.2253408432007,1073.58540391922,1073.2253408432007,1073.58540391922,1072.2190499305725,None,1072.2190499305725,None,1072.2190499305725,None,-1,-1,1,True,268.7397003173828,504.9936771392822,left,1074.8998408317566,None,pp_12,icub,clamp,2021_Dec_22_1626,exp,2021.2.3,60.183003910033364,
left,go,2,0,2,0,9,2,56,1,1075.417636871338,None,1,0.3819267749786377,1075.417636871338,None,1075.9012429714203,None,1076.903625011444,1077.2504558563232,1076.903625011444,1077.2504558563232,1075.9012429714203,None,1075.9012429714203,None,1075.9012429714203,None,-1,-1,1,True,110.98599433898926,480.85784912109375,left,1078.3918528556824,None,pp_12,icub,clamp,2021_Dec_22_1626,exp,2021.2.3,60.183003910033364,
left,go,2,0,2,0,9,3,57,0,1078.9085659980774,None,1,0.585439920425415,1078.9085659980774,None,1079.574509859085,None,1080.5912079811096,1080.9561619758606,1080.5912079811096,1080.9561619758606,1079.574509859085,None,1079.574509859085,None,1079.574509859085,None,-1,-1,1,True,162.9648208618164,586.1349105834961,left,1082.1984498500824,None,pp_12,icub,clamp,2021_Dec_22_1626,exp,2021.2.3,60.183003910033364,
right,stop,2,0,2,0,9,4,58,5,1082.7199578285217,None,1,0.3813149929046631,1082.7199578285217,None,1083.2010889053345,None,1084.223002910614,1084.5694608688354,1084.223002910614,1084.5694608688354,1083.2010889053345,None,1083.2010889053345,None,1083.2010889053345,None,350,250,1,True,37.628173828125,-1.0,-1,1088.1183679103851,None,pp_12,icub,clamp,2021_Dec_22_1626,exp,2021.2.3,60.183003910033364,
left,go,2,0,2,0,9,5,59,1,1088.6512088775635,None,1,0.4451160430908203,1088.6512088775635,None,1089.2025299072266,None,1090.1766610145569,1090.5282759666443,1090.1766610145569,1090.5282759666443,1089.2025299072266,None,1089.2025299072266,None,1089.2025299072266,None,-1,-1,1,True,157.85503387451172,443.93134117126465,left,1091.7050240039825,None,pp_12,icub,clamp,2021_Dec_22_1626,exp,2021.2.3,60.183003910033364,
right,go,2,0,2,0,10,0,60,3,1092.23664188385,None,1,0.24797296524047852,1092.23664188385,None,1092.5953500270844,None,1093.5898959636688,1093.918771982193,1093.5898959636688,1093.918771982193,1092.5953500270844,None,1092.5953500270844,None,1092.5953500270844,None,-1,-1,1,True,153.3801555633545,480.42988777160645,right,1095.1088998317719,None,pp_12,icub,clamp,2021_Dec_22_1626,exp,2021.2.3,60.183003910033364,
right,go,2,0,2,0,10,1,61,4,1095.6268110275269,None,1,0.4297211170196533,1095.6268110275269,None,1096.1700880527496,None,1097.1962769031525,1097.557631969452,1097.1962769031525,1097.557631969452,1096.1700880527496,None,1096.1700880527496,None,1096.1700880527496,None,-1,-1,1,True,99.17092323303223,429.8868179321289,right,1098.5780868530273,None,pp_12,icub,clamp,2021_Dec_22_1626,exp,2021.2.3,60.183003910033364,
left,stop,2,0,2,0,10,2,62,2,1099.0776710510254,None,1,2.629145860671997,1099.0776710510254,None,1101.792287826538,None,1102.7922039031982,1103.1467230319977,1102.7922039031982,1103.1467230319977,1101.792287826538,None,1101.792287826538,None,1101.792287826538,None,,,0,False,-1.0,-1.0,-1,1103.581326007843,None,pp_12,icub,clamp,2021_Dec_22_1626,exp,2021.2.3,60.183003910033364,
left,go,2,0,2,0,10,3,63,0,1104.0771489143372,None,1,0.33036088943481445,1104.0771489143372,None,1104.5043940544128,None,1105.4914989471436,1105.822693824768,1105.4914989471436,1105.822693824768,1104.5043940544128,None,1104.5043940544128,None,1104.5043940544128,None,-1,-1,1,True,334.9790573120117,390.0890350341797,left,1107.1110248565674,None,pp_12,icub,clamp,2021_Dec_22_1626,exp,2021.2.3,60.183003910033364,
right,go,2,0,2,0,10,4,64,3,1107.6368699073792,None,1,0.1346440315246582,1107.6368699073792,None,1107.8725299835205,None,1108.890918970108,1109.243350982666,1108.890918970108,1109.243350982666,1107.8725299835205,None,1107.8725299835205,None,1107.8725299835205,None,-1,-1,1,True,119.77863311767578,490.1304244995117,right,1110.3761479854584,None,pp_12,icub,clamp,2021_Dec_22_1626,exp,2021.2.3,60.183003910033364,
left,go,2,0,2,0,10,5,65,1,1110.8961398601532,None,1,0.07630085945129395,1110.8961398601532,None,1111.067869901657,None,1112.0864808559418,1112.412729024887,1112.0864808559418,1112.412729024887,1111.067869901657,None,1111.067869901657,None,1111.067869901657,None,-1,-1,1,True,255.75947761535645,508.8016986846924,left,1113.7393498420715,None,pp_12,icub,clamp,2021_Dec_22_1626,exp,2021.2.3,60.183003910033364,
left,stop,2,0,2,0,11,0,66,2,1114.2611458301544,None,1,0.03355288505554199,1114.2611458301544,None,1114.3703289031982,None,1115.3900690078735,1115.7488298416138,1115.3900690078735,1115.7488298416138,1114.3703289031982,None,1114.3703289031982,None,1114.3703289031982,None,350,300,0,True,316.84136390686035,422.9443073272705,left,1117.0314300060272,None,pp_12,icub,clamp,2021_Dec_22_1626,exp,2021.2.3,60.183003910033364,
right,go,2,0,2,0,11,1,67,3,1117.5431718826294,None,1,0.5122921466827393,1117.5431718826294,None,1118.1509928703308,None,1119.1717448234558,1119.5287990570068,1119.1717448234558,1119.5287990570068,1118.1509928703308,None,1118.1509928703308,None,1118.1509928703308,None,-1,-1,1,True,242.4297332763672,558.8045120239258,right,1120.8491728305817,None,pp_12,icub,clamp,2021_Dec_22_1626,exp,2021.2.3,60.183003910033364,
right,go,2,0,2,0,11,2,68,3,1121.3628969192505,None,1,0.25771212577819824,1121.3628969192505,None,1121.7221188545227,None,1122.742243051529,1123.0776329040527,1122.742243051529,1123.0776329040527,1121.7221188545227,None,1121.7221188545227,None,1121.7221188545227,None,-1,-1,1,True,260.2672576904297,533.5140228271484,right,1124.400120973587,None,pp_12,icub,clamp,2021_Dec_22_1626,exp,2021.2.3,60.183003910033364,
right,go,2,0,2,0,11,3,69,3,1124.8969469070435,None,1,0.16828203201293945,1124.8969469070435,None,1125.1784009933472,None,1126.1777160167694,1126.5356328487396,1126.1777160167694,1126.5356328487396,1125.1784009933472,None,1125.1784009933472,None,1125.1784009933472,None,-1,-1,1,True,277.4670124053955,731.2765121459961,right,1128.067540884018,None,pp_12,icub,clamp,2021_Dec_22_1626,exp,2021.2.3,60.183003910033364,
right,stop,2,0,2,0,11,4,70,5,1128.5847508907318,None,1,0.4679899215698242,1128.5847508907318,None,1129.1283218860626,None,1130.1579239368439,1130.521450996399,1130.1579239368439,1130.521450996399,1129.1283218860626,None,1129.1283218860626,None,1129.1283218860626,None,300,300,1,True,188.48061561584473,-1.0,-1,1134.1961560249329,None,pp_12,icub,clamp,2021_Dec_22_1626,exp,2021.2.3,60.183003910033364,
right,go,2,0,2,0,11,5,71,4,1134.72931599617,None,1,0.6605949401855469,1134.72931599617,None,1135.5256559848785,None,1136.505516052246,1136.8566310405731,1136.505516052246,1136.8566310405731,1135.5256559848785,None,1135.5256559848785,None,1135.5256559848785,None,,,0,False,-1.0,-1.0,-1,1137.3803508281708,None,pp_12,icub,clamp,2021_Dec_22_1626,exp,2021.2.3,60.183003910033364,
left,go,2,0,2,0,12,0,72,1,1137.87411403656,None,1,0.24574589729309082,1137.87411403656,None,1138.2392539978027,None,1139.223305940628,1139.5659379959106,1139.223305940628,1139.5659379959106,1138.2392539978027,None,1138.2392539978027,None,1138.2392539978027,None,-1,-1,1,True,283.01453590393066,578.0160427093506,left,1140.9949538707733,None,pp_12,icub,clamp,2021_Dec_22_1626,exp,2021.2.3,60.183003910033364,
left,stop,2,0,2,0,12,1,73,2,1141.5056698322296,None,1,0.1858370304107666,1141.5056698322296,None,1141.8002150058746,None,1142.814502954483,1143.1835479736328,1142.814502954483,1143.1835479736328,1141.8002150058746,None,1141.8002150058746,None,1141.8002150058746,None,300,350,1,True,217.92864799499512,-1.0,-1,1146.9203088283539,None,pp_12,icub,clamp,2021_Dec_22_1626,exp,2021.2.3,60.183003910033364,
right,stop,2,0,2,0,12,2,74,5,1147.45272898674,None,1,1.547050952911377,1147.45272898674,None,1149.1196858882904,None,1150.0924680233002,1150.449049949646,1150.0924680233002,1150.449049949646,1149.1196858882904,None,1149.1196858882904,None,1149.1196858882904,None,350,350,1,True,439.54968452453613,-1.0,-1,1154.461823940277,None,pp_12,icub,clamp,2021_Dec_22_1626,exp,2021.2.3,60.183003910033364,
right,go,2,0,2,0,12,3,75,4,1154.9952309131622,None,1,0.4745631217956543,1154.9952309131622,None,1155.6089498996735,None,1156.5949108600616,1156.9217519760132,1156.5949108600616,1156.9217519760132,1155.6089498996735,None,1155.6089498996735,None,1155.6089498996735,None,-1,-1,1,True,57.17277526855469,666.6932106018066,right,1158.2026360034943,None,pp_12,icub,clamp,2021_Dec_22_1626,exp,2021.2.3,60.183003910033364,
right,stop,2,0,2,0,12,4,76,5,1158.7087829113007,None,1,0.13959813117980957,1158.7087829113007,None,1158.9439070224762,None,1159.9407858848572,1160.2672209739685,1159.9407858848572,1160.2672209739685,1158.9439070224762,None,1158.9439070224762,None,1158.9439070224762,None,350,400,1,True,240.36931991577148,-1.0,-1,1164.0663208961487,None,pp_12,icub,clamp,2021_Dec_22_1626,exp,2021.2.3,60.183003910033364,
right,go,2,0,2,0,12,5,77,3,1164.6002600193024,None,1,0.7715070247650146,1164.6002600193024,None,1165.4605288505554,None,1166.4454588890076,1166.803172826767,1166.4454588890076,1166.803172826767,1165.4605288505554,None,1165.4605288505554,None,1165.4605288505554,None,-1,-1,1,True,174.9119758605957,700.8671760559082,right,1168.2117569446564,None,pp_12,icub,clamp,2021_Dec_22_1626,exp,2021.2.3,60.183003910033364,
left,go,3,0,3,0,0,0,0,0,1186.226625919342,None,1,7.103588104248047,1186.226625919342,None,1193.4157700538635,None,1194.4230840206146,1194.7679688930511,1194.4230840206146,1194.7679688930511,1193.4157700538635,None,1193.4157700538635,None,1193.4157700538635,None,-1,-1,1,True,78.92513275146484,563.2262229919434,left,1195.9422948360443,None,pp_12,icub,clamp,2021_Dec_22_1626,exp,2021.2.3,60.183003910033364,
right,go,3,0,3,0,0,1,1,4,1196.4527750015259,None,1,0.6766488552093506,1196.4527750015259,None,1197.2400019168854,None,1198.267012834549,1198.6207818984985,1198.267012834549,1198.6207818984985,1197.2400019168854,None,1197.2400019168854,None,1197.2400019168854,None,,,0,False,-1.0,-1.0,-1,1199.0892279148102,None,pp_12,icub,clamp,2021_Dec_22_1626,exp,2021.2.3,60.183003910033364,
left,go,3,0,3,0,0,2,2,1,1199.6078729629517,None,1,0.3107149600982666,1199.6078729629517,None,1200.0342240333557,None,1201.0193560123444,1201.3881039619446,1201.0193560123444,1201.3881039619446,1200.0342240333557,None,1200.0342240333557,None,1200.0342240333557,None,-1,-1,1,True,297.12510108947754,428.70330810546875,left,1202.6503179073334,None,pp_12,icub,clamp,2021_Dec_22_1626,exp,2021.2.3,60.183003910033364,
right,go,3,0,3,0,0,3,3,4,1203.1486899852753,None,1,0.21047711372375488,1203.1486899852753,None,1203.4444918632507,None,1204.4750289916992,1204.8169038295746,1204.4750289916992,1204.8169038295746,1203.4444918632507,None,1203.4444918632507,None,1203.4444918632507,None,-1,-1,1,True,54.062843322753906,508.3494186401367,right,1205.8914878368378,None,pp_12,icub,clamp,2021_Dec_22_1626,exp,2021.2.3,60.183003910033364,
left,go,3,0,3,0,0,4,4,1,1206.3984599113464,None,1,0.37855100631713867,1206.3984599113464,None,1206.8778500556946,None,1207.8830678462982,1208.228994846344,1207.8830678462982,1208.228994846344,1206.8778500556946,None,1206.8778500556946,None,1206.8778500556946,None,-1,-1,1,True,71.77519798278809,565.8197402954102,left,1209.4123890399933,None,pp_12,icub,clamp,2021_Dec_22_1626,exp,2021.2.3,60.183003910033364,
right,stop,3,0,3,0,0,5,5,5,1209.914108991623,None,1,0.17030906677246094,1209.914108991623,None,1210.2083818912506,None,1211.2089049816132,1211.543881893158,1211.2089049816132,1211.543881893158,1210.2083818912506,None,1210.2083818912506,None,1210.2083818912506,None,350,450,0,True,203.5236358642578,588.8206958770752,right,1212.9085910320282,None,pp_12,icub,clamp,2021_Dec_22_1626,exp,2021.2.3,60.183003910033364,
right,stop,3,0,3,0,1,0,6,5,1213.4153480529785,None,1,1.2740468978881836,1213.4153480529785,None,1214.7648658752441,None,1215.766566991806,1216.105761051178,1215.766566991806,1216.105761051178,1214.7648658752441,None,1214.7648658752441,None,1214.7648658752441,None,350,400,0,True,259.11951065063477,505.5210590362549,right,1217.3983979225159,None,pp_12,icub,clamp,2021_Dec_22_1626,exp,2021.2.3,60.183003910033364,
left,go,3,0,3,0,1,1,7,1,1217.9155278205872,None,1,0.33945298194885254,1217.9155278205872,None,1218.3352348804474,None,1219.3593769073486,1219.7184448242188,1219.3593769073486,1219.7184448242188,1218.3352348804474,None,1218.3352348804474,None,1218.3352348804474,None,-1,-1,1,True,209.33294296264648,673.0384826660156,left,1221.0989809036255,None,pp_12,icub,clamp,2021_Dec_22_1626,exp,2021.2.3,60.183003910033364,
left,go,3,0,3,0,1,2,8,0,1221.6203570365906,None,1,0.02351093292236328,1221.6203570365906,None,1221.7293779850006,None,1222.7495439052582,1223.0728039741516,1222.7495439052582,1223.0728039741516,1221.7293779850006,None,1221.7293779850006,None,1221.7293779850006,None,,,0,False,-1.0,-1.0,-1,1223.5567498207092,None,pp_12,icub,clamp,2021_Dec_22_1626,exp,2021.2.3,60.183003910033364,
right,go,3,0,3,0,1,3,9,4,1224.0873630046844,None,1,0.3560640811920166,1224.0873630046844,None,1224.5774109363556,None,1225.5461719036102,1225.908951997757,1225.5461719036102,1225.908951997757,1224.5774109363556,None,1224.5774109363556,None,1224.5774109363556,None,-1,-1,1,True,292.1922206878662,505.51629066467285,right,1227.284091949463,None,pp_12,icub,clamp,2021_Dec_22_1626,exp,2021.2.3,60.183003910033364,
right,go,3,0,3,0,1,4,10,3,1227.8036789894104,None,1,0.1102290153503418,1227.8036789894104,None,1228.038025856018,None,1229.0649950504303,1229.4261119365692,1229.0649950504303,1229.4261119365692,1228.038025856018,None,1228.038025856018,None,1228.038025856018,None,-1,-1,1,True,192.18754768371582,467.1475887298584,right,1230.5715198516846,None,pp_12,icub,clamp,2021_Dec_22_1626,exp,2021.2.3,60.183003910033364,
left,go,3,0,3,0,1,5,11,0,1231.0896499156952,None,1,0.1372671127319336,1231.0896499156952,None,1231.3226208686829,None,1232.3174929618835,1232.672611951828,1232.3174929618835,1232.672611951828,1231.3226208686829,None,1231.3226208686829,None,1231.3226208686829,None,-1,-1,1,True,162.31417655944824,426.3756275177002,left,1233.8188018798828,None,pp_12,icub,clamp,2021_Dec_22_1626,exp,2021.2.3,60.183003910033364,
left,go,3,0,3,0,2,0,12,0,1234.323541879654,None,1,0.023456096649169922,1234.323541879654,None,1234.4324889183044,None,1235.4289200305939,1235.776494026184,1235.4289200305939,1235.776494026184,1234.4324889183044,None,1234.4324889183044,None,1234.4324889183044,None,,,0,False,3000.258684158325,-1.0,-1,1239.3150339126587,None,pp_12,icub,clamp,2021_Dec_22_1626,exp,2021.2.3,60.183003910033364,
