Holder,Action,blocks.thisRepN,blocks.thisTrialN,blocks.thisN,blocks.thisIndex,trials.thisRepN,trials.thisTrialN,trials.thisN,trials.thisIndex,start_msg.started,start_msg.stopped,RespButton_start_trial.keys,RespButton_start_trial.rt,RespButton_start_trial.started,RespButton_start_trial.stopped,GREEN.started,GREEN.stopped,LEFT_RED.started,LEFT_RED.stopped,RIGHT_RED.started,RIGHT_RED.stopped,LEFT_CIRCLE.started,LEFT_CIRCLE.stopped,CENTER_CIRCLE.started,CENTER_CIRCLE.stopped,RIGHT_CIRCLE.started,RIGHT_CIRCLE.stopped,CORRECT,VALIDITY,RELEASE_TIME,TOUCH_TIME,BOTTLE_RESPONSE_POSITION,text.started,text.stopped,SOUND_DELAY_MS_LEFT,SOUND_DELAY_MS_RIGHT,pid,left_position,right_position,date,expName,psychopyVersion,frameRate,
right,go,0,0,0,0,0,0,0,4,34.759989976882935,None,1,16.909736156463623,34.759989976882935,None,51.77452111244202,None,None,None,None,None,51.77452111244202,None,51.77452111244202,None,51.77452111244202,None,0,False,-1.0,-1.0,-1,52.863365173339844,None,,,pp_18,icub,clamp,2021_Dec_24_1018,exp,2021.2.3,59.968916791652426,
left,go,0,0,0,0,0,1,1,1,53.37422513961792,None,1,3.9422388076782227,53.37422513961792,None,57.39723515510559,None,58.404869079589844,58.751384973526,58.404869079589844,58.751384973526,57.39723515510559,None,57.39723515510559,None,57.39723515510559,None,1,True,593.7421321868896,674.1256713867188,left,60.543697118759155,None,-1,-1,pp_18,icub,clamp,2021_Dec_24_1018,exp,2021.2.3,59.968916791652426,
right,go,0,0,0,0,0,2,2,3,61.039775133132935,None,1,0.938899040222168,61.039775133132935,None,62.079604148864746,None,63.080716133117676,63.43804717063904,63.080716133117676,63.43804717063904,62.079604148864746,None,62.079604148864746,None,62.079604148864746,None,1,True,533.560037612915,792.3417091369629,right,65.2896511554718,None,-1,-1,pp_18,icub,clamp,2021_Dec_24_1018,exp,2021.2.3,59.968916791652426,
right,go,0,0,0,0,0,3,3,4,65.81008005142212,None,1,0.7760028839111328,65.81008005142212,None,66.7185411453247,None,67.74032497406006,68.08745217323303,67.74032497406006,68.08745217323303,66.7185411453247,None,66.7185411453247,None,66.7185411453247,None,1,True,413.7094020843506,587.6400470733643,right,69.60946702957153,None,-1,-1,pp_18,icub,clamp,2021_Dec_24_1018,exp,2021.2.3,59.968916791652426,
left,go,0,0,0,0,0,4,4,1,70.14396500587463,None,1,0.5077850818634033,70.14396500587463,None,70.74662208557129,None,71.74545097351074,72.09062314033508,71.74545097351074,72.09062314033508,70.74662208557129,None,70.74662208557129,None,70.74662208557129,None,1,True,348.09327125549316,502.9020309448242,left,73.47367000579834,None,-1,-1,pp_18,icub,clamp,2021_Dec_24_1018,exp,2021.2.3,59.968916791652426,
left,go,0,0,0,0,0,5,5,1,73.99008107185364,None,1,0.43244194984436035,73.99008107185364,None,74.50602197647095,None,75.50976896286011,75.87799715995789,75.50976896286011,75.87799715995789,74.50602197647095,None,74.50602197647095,None,74.50602197647095,None,1,True,391.9870853424072,540.0111675262451,left,77.338613986969,None,-1,-1,pp_18,icub,clamp,2021_Dec_24_1018,exp,2021.2.3,59.968916791652426,
right,go,0,0,0,0,1,0,6,3,77.85666513442993,None,1,0.4843180179595947,77.85666513442993,None,78.46246218681335,None,79.49580717086792,79.84084916114807,79.49580717086792,79.84084916114807,78.46246218681335,None,78.46246218681335,None,78.46246218681335,None,1,True,278.66458892822266,538.8960838317871,right,81.18015217781067,None,-1,-1,pp_18,icub,clamp,2021_Dec_24_1018,exp,2021.2.3,59.968916791652426,
left,go,0,0,0,0,1,1,7,1,81.69610500335693,None,1,0.4649658203125,81.69610500335693,None,82.28833603858948,None,83.28295016288757,83.63131713867188,83.28295016288757,83.63131713867188,82.28833603858948,None,82.28833603858948,None,82.28833603858948,None,1,True,301.6030788421631,510.68902015686035,left,84.97441411018372,None,-1,-1,pp_18,icub,clamp,2021_Dec_24_1018,exp,2021.2.3,59.968916791652426,
right,go,0,0,0,0,1,2,8,4,85.48932719230652,None,1,0.42362213134765625,85.48932719230652,None,86.02837419509888,None,87.05097699165344,87.42146110534668,87.05097699165344,87.42146110534668,86.02837419509888,None,86.02837419509888,None,86.02837419509888,None,1,True,293.31254959106445,525.9456634521484,right,88.72845602035522,None,-1,-1,pp_18,icub,clamp,2021_Dec_24_1018,exp,2021.2.3,59.968916791652426,
right,go,0,0,0,0,1,3,9,4,89.23991513252258,None,1,0.21187710762023926,89.23991513252258,None,89.53710603713989,None,90.54429912567139,90.88997101783752,90.54429912567139,90.88997101783752,89.53710603713989,None,89.53710603713989,None,89.53710603713989,None,1,True,331.50529861450195,528.465986251831,right,92.29638814926147,None,-1,-1,pp_18,icub,clamp,2021_Dec_24_1018,exp,2021.2.3,59.968916791652426,
right,stop,0,0,0,0,1,4,10,5,92.81645011901855,None,1,0.3971219062805176,92.81645011901855,None,93.29907417297363,None,94.30582118034363,94.67624711990356,94.30582118034363,94.67624711990356,93.29907417297363,None,93.29907417297363,None,93.29907417297363,None,0,True,256.4103603363037,550.8973598480225,right,96.0142171382904,None,500,500,pp_18,icub,clamp,2021_Dec_24_1018,exp,2021.2.3,59.968916791652426,
left,stop,0,0,0,0,1,5,11,2,96.51723408699036,None,1,1.1154320240020752,96.51723408699036,None,97.73910403251648,None,98.74593305587769,99.10488700866699,98.74593305587769,99.10488700866699,97.73910403251648,None,97.73910403251648,None,97.73910403251648,None,0,True,164.72506523132324,562.0970726013184,left,100.3582410812378,None,500,450,pp_18,icub,clamp,2021_Dec_24_1018,exp,2021.2.3,59.968916791652426,
right,stop,0,0,0,0,2,0,12,5,100.85913705825806,None,1,0.6446030139923096,100.85913705825806,None,101.5843141078949,None,102.59264898300171,102.95321106910706,102.59264898300171,102.95321106910706,101.5843141078949,None,101.5843141078949,None,101.5843141078949,None,0,True,353.9118766784668,540.6074523925781,right,104.38023209571838,None,450,450,pp_18,icub,clamp,2021_Dec_24_1018,exp,2021.2.3,59.968916791652426,
left,stop,0,0,0,0,2,1,13,2,104.90121817588806,None,1,0.6429500579833984,104.90121817588806,None,105.62956809997559,None,106.63525915145874,106.99308919906616,106.63525915145874,106.99308919906616,105.62956809997559,None,105.62956809997559,None,105.62956809997559,None,1,True,323.23646545410156,-1.0,-1,110.85325813293457,None,450,400,pp_18,icub,clamp,2021_Dec_24_1018,exp,2021.2.3,59.968916791652426,
right,go,0,0,0,0,2,2,14,4,111.34611105918884,None,1,0.6415600776672363,111.34611105918884,None,112.08129596710205,None,113.06061816215515,113.42629098892212,113.06061816215515,113.42629098892212,112.08129596710205,None,112.08129596710205,None,112.08129596710205,None,1,True,335.7505798339844,835.299015045166,right,115.1292941570282,None,-1,-1,pp_18,icub,clamp,2021_Dec_24_1018,exp,2021.2.3,59.968916791652426,
left,go,0,0,0,0,2,3,15,0,115.63697218894958,None,1,0.634984016418457,115.63697218894958,None,116.36253714561462,None,117.35655808448792,117.70153713226318,117.35655808448792,117.70153713226318,116.36253714561462,None,116.36253714561462,None,116.36253714561462,None,1,True,253.98683547973633,550.6792068481445,left,119.06417417526245,None,-1,-1,pp_18,icub,clamp,2021_Dec_24_1018,exp,2021.2.3,59.968916791652426,
left,go,0,0,0,0,2,4,16,0,119.56993699073792,None,1,0.6547400951385498,119.56993699073792,None,120.35743808746338,None,121.35792899131775,121.72474002838135,121.35792899131775,121.72474002838135,120.35743808746338,None,120.35743808746338,None,120.35743808746338,None,1,True,398.29182624816895,763.5812759399414,left,123.41772699356079,None,-1,-1,pp_18,icub,clamp,2021_Dec_24_1018,exp,2021.2.3,59.968916791652426,
right,stop,0,0,0,0,2,5,17,5,123.95383715629578,None,1,0.6171000003814697,123.95383715629578,None,124.67925810813904,None,125.68155217170715,126.0333821773529,125.68155217170715,126.0333821773529,124.67925810813904,None,124.67925810813904,None,124.67925810813904,None,1,True,309.7341060638428,-1.0,-1,129.87294101715088,None,500,400,pp_18,icub,clamp,2021_Dec_24_1018,exp,2021.2.3,59.968916791652426,
left,go,0,0,0,0,3,0,18,0,130.40281414985657,None,1,0.5874440670013428,130.40281414985657,None,131.07775497436523,None,132.0592269897461,132.4187171459198,132.0592269897461,132.4187171459198,131.07775497436523,None,131.07775497436523,None,131.07775497436523,None,1,True,53.48038673400879,855.9005260467529,left,133.8538041114807,None,-1,-1,pp_18,icub,clamp,2021_Dec_24_1018,exp,2021.2.3,59.968916791652426,
left,stop,0,0,0,0,3,1,19,2,134.364972114563,None,1,0.6126189231872559,134.364972114563,None,135.08844304084778,None,136.11425399780273,136.48195219039917,136.11425399780273,136.48195219039917,135.08844304084778,None,135.08844304084778,None,135.08844304084778,None,0,True,302.11472511291504,569.2055225372314,left,137.8450620174408,None,500,450,pp_18,icub,clamp,2021_Dec_24_1018,exp,2021.2.3,59.968916791652426,
left,stop,0,0,0,0,3,2,20,2,138.37327599525452,None,1,1.0462238788604736,138.37327599525452,None,139.5295910835266,None,140.5242841243744,140.88938808441162,140.5242841243744,140.88938808441162,139.5295910835266,None,139.5295910835266,None,139.5295910835266,None,1,True,320.2781677246094,-1.0,-1,144.74797296524048,None,450,450,pp_18,icub,clamp,2021_Dec_24_1018,exp,2021.2.3,59.968916791652426,
right,go,0,0,0,0,3,3,21,4,145.2408561706543,None,1,0.5713820457458496,145.2408561706543,None,145.91360712051392,None,146.88754105567932,147.24867916107178,146.88754105567932,147.24867916107178,145.91360712051392,None,145.91360712051392,None,145.91360712051392,None,1,True,470.6273078918457,746.4351654052734,right,149.02615213394165,None,-1,-1,pp_18,icub,clamp,2021_Dec_24_1018,exp,2021.2.3,59.968916791652426,
left,go,0,0,0,0,3,4,22,1,149.54721212387085,None,1,0.7433209419250488,149.54721212387085,None,150.3968620300293,None,151.40825819969177,151.77052903175354,151.40825819969177,151.77052903175354,150.3968620300293,None,150.3968620300293,None,150.3968620300293,None,1,True,166.90540313720703,609.9226474761963,left,153.07796001434326,None,-1,-1,pp_18,icub,clamp,2021_Dec_24_1018,exp,2021.2.3,59.968916791652426,
right,go,0,0,0,0,3,5,23,4,153.59729719161987,None,1,0.7575750350952148,153.59729719161987,None,154.44630312919617,None,155.45122909545898,155.7966160774231,155.45122909545898,155.7966160774231,154.44630312919617,None,154.44630312919617,None,154.44630312919617,None,1,True,272.1226215362549,733.4449291229248,right,157.32192707061768,None,-1,-1,pp_18,icub,clamp,2021_Dec_24_1018,exp,2021.2.3,59.968916791652426,
right,go,0,0,0,0,4,0,24,4,157.83434200286865,None,1,0.8693320751190186,157.83434200286865,None,158.809326171875,None,159.8389060497284,160.18555307388306,159.8389060497284,160.18555307388306,158.809326171875,None,158.809326171875,None,158.809326171875,None,1,True,231.90665245056152,567.2042369842529,right,161.49514198303223,None,-1,-1,pp_18,icub,clamp,2021_Dec_24_1018,exp,2021.2.3,59.968916791652426,
right,stop,0,0,0,0,4,1,25,5,162.02139711380005,None,1,0.8980669975280762,162.02139711380005,None,163.052875995636,None,164.05979704856873,164.41719818115234,164.05979704856873,164.41719818115234,163.052875995636,None,163.052875995636,None,163.052875995636,None,1,True,2773.345470428467,-1.0,-1,170.72389316558838,None,500,450,pp_18,icub,clamp,2021_Dec_24_1018,exp,2021.2.3,59.968916791652426,
right,go,0,0,0,0,4,2,26,3,171.2533311843872,None,1,0.8147289752960205,171.2533311843872,None,172.17370104789734,None,173.15446305274963,173.5089361667633,173.15446305274963,173.5089361667633,172.17370104789734,None,172.17370104789734,None,172.17370104789734,None,1,True,337.70179748535156,693.6142444610596,right,175.07198119163513,None,-1,-1,pp_18,icub,clamp,2021_Dec_24_1018,exp,2021.2.3,59.968916791652426,
left,go,0,0,0,0,4,3,27,0,175.58569812774658,None,1,0.714911937713623,175.58569812774658,None,176.43311405181885,None,177.45491099357605,177.80369901657104,177.45491099357605,177.80369901657104,176.43311405181885,None,176.43311405181885,None,176.43311405181885,None,1,True,292.8891181945801,515.7244205474854,left,179.14069819450378,None,-1,-1,pp_18,icub,clamp,2021_Dec_24_1018,exp,2021.2.3,59.968916791652426,
right,go,0,0,0,0,4,4,28,4,179.6584870815277,None,1,0.6139500141143799,179.6584870815277,None,180.40064215660095,None,181.4237401485443,181.78473210334778,181.4237401485443,181.78473210334778,180.40064215660095,None,180.40064215660095,None,180.40064215660095,None,1,True,309.1154098510742,614.7263050079346,right,183.19780611991882,None,-1,-1,pp_18,icub,clamp,2021_Dec_24_1018,exp,2021.2.3,59.968916791652426,
left,go,0,0,0,0,4,5,29,1,183.72581315040588,None,1,0.6156938076019287,183.72581315040588,None,184.44026398658752,None,185.4395899772644,185.7679979801178,185.4395899772644,185.7679979801178,184.44026398658752,None,184.44026398658752,None,184.44026398658752,None,1,True,296.16236686706543,568.2919025421143,left,187.20278811454773,None,-1,-1,pp_18,icub,clamp,2021_Dec_24_1018,exp,2021.2.3,59.968916791652426,
left,stop,0,0,0,0,5,0,30,2,187.7185571193695,None,1,0.5608558654785156,187.7185571193695,None,188.38583302497864,None,189.37705898284912,189.71644711494446,189.37705898284912,189.71644711494446,188.38583302497864,None,188.38583302497864,None,188.38583302497864,None,0,True,339.6000862121582,546.5915203094482,left,191.17722916603088,None,500,500,pp_18,icub,clamp,2021_Dec_24_1018,exp,2021.2.3,59.968916791652426,
left,go,0,0,0,0,5,1,31,1,191.6831090450287,None,1,0.949052095413208,191.6831090450287,None,192.7179820537567,None,193.75051617622375,194.10530519485474,193.75051617622375,194.10530519485474,192.7179820537567,None,192.7179820537567,None,192.7179820537567,None,1,True,398.7274169921875,700.2241611480713,left,195.72525310516357,None,-1,-1,pp_18,icub,clamp,2021_Dec_24_1018,exp,2021.2.3,59.968916791652426,
right,stop,0,0,0,0,5,2,32,5,196.22499799728394,None,1,0.6674420833587646,196.22499799728394,None,197.01028203964233,None,198.02301812171936,198.35743808746338,198.02301812171936,198.35743808746338,197.01028203964233,None,197.01028203964233,None,197.01028203964233,None,0,True,253.97157669067383,615.5140399932861,right,199.76420402526855,None,450,500,pp_18,icub,clamp,2021_Dec_24_1018,exp,2021.2.3,59.968916791652426,
left,stop,0,0,0,0,5,3,33,2,200.25710916519165,None,1,0.8692150115966797,200.25710916519165,None,201.22030115127563,None,202.22924613952637,202.58254313468933,202.22924613952637,202.58254313468933,201.22030115127563,None,201.22030115127563,None,201.22030115127563,None,1,True,308.56919288635254,-1.0,-1,206.4327051639557,None,450,450,pp_18,icub,clamp,2021_Dec_24_1018,exp,2021.2.3,59.968916791652426,
right,go,0,0,0,0,5,4,34,4,206.92550897598267,None,1,0.7035589218139648,206.92550897598267,None,207.72174906730652,None,208.6981430053711,209.0519151687622,208.6981430053711,209.0519151687622,207.72174906730652,None,207.72174906730652,None,207.72174906730652,None,1,True,349.7612476348877,753.5445690155029,right,210.68866610527039,None,-1,-1,pp_18,icub,clamp,2021_Dec_24_1018,exp,2021.2.3,59.968916791652426,
right,stop,0,0,0,0,5,5,35,5,211.19360399246216,None,1,0.6638360023498535,211.19360399246216,None,211.9810299873352,None,213.0015630722046,213.3682940006256,213.0015630722046,213.3682940006256,211.9810299873352,None,211.9810299873352,None,211.9810299873352,None,1,True,305.1438331604004,-1.0,-1,217.16233897209167,None,500,450,pp_18,icub,clamp,2021_Dec_24_1018,exp,2021.2.3,59.968916791652426,
left,stop,0,0,0,0,6,0,36,2,217.69456696510315,None,1,1.0106191635131836,217.69456696510315,None,218.800213098526,None,219.80121397972107,220.15482711791992,219.80121397972107,220.15482711791992,218.800213098526,None,218.800213098526,None,218.800213098526,None,1,True,525.6478786468506,-1.0,-1,224.2117919921875,None,500,500,pp_18,icub,clamp,2021_Dec_24_1018,exp,2021.2.3,59.968916791652426,
right,stop,0,0,0,0,6,1,37,5,224.7422490119934,None,1,0.9256420135498047,224.7422490119934,None,225.78354501724243,None,226.7619559764862,227.12663507461548,226.7619559764862,227.12663507461548,225.78354501724243,None,225.78354501724243,None,225.78354501724243,None,1,True,636.4455223083496,-1.0,-1,231.29215908050537,None,550,500,pp_18,icub,clamp,2021_Dec_24_1018,exp,2021.2.3,59.968916791652426,
left,stop,0,0,0,0,6,2,38,2,231.82347702980042,None,1,0.6233820915222168,231.82347702980042,None,232.55922412872314,None,233.54025411605835,233.87106919288635,233.54025411605835,233.87106919288635,232.55922412872314,None,232.55922412872314,None,232.55922412872314,None,0,True,386.9442939758301,745.6364631652832,left,235.5785310268402,None,550,550,pp_18,icub,clamp,2021_Dec_24_1018,exp,2021.2.3,59.968916791652426,
left,stop,0,0,0,0,6,3,39,2,236.09565114974976,None,1,1.0327458381652832,236.09565114974976,None,237.21373915672302,None,238.20893001556396,238.56509709358215,238.20893001556396,238.56509709358215,237.21373915672302,None,237.21373915672302,None,237.21373915672302,None,1,True,582.268238067627,-1.0,-1,242.6837739944458,None,500,550,pp_18,icub,clamp,2021_Dec_24_1018,exp,2021.2.3,59.968916791652426,
left,go,0,0,0,0,6,4,40,0,243.17763805389404,None,1,0.1111900806427002,243.17763805389404,None,243.41789197921753,None,244.39498114585876,244.75173807144165,244.39498114585876,244.75173807144165,243.41789197921753,None,243.41789197921753,None,243.41789197921753,None,1,True,449.88346099853516,1124.060869216919,left,246.882915019989,None,-1,-1,pp_18,icub,clamp,2021_Dec_24_1018,exp,2021.2.3,59.968916791652426,
left,go,0,0,0,0,6,5,41,0,247.39579010009766,None,1,1.2204439640045166,247.39579010009766,None,248.74073910713196,None,249.7568211555481,250.11576104164124,249.7568211555481,250.11576104164124,248.74073910713196,None,248.74073910713196,None,248.74073910713196,None,1,True,6.852626800537109,689.9657249450684,left,251.31858801841736,None,-1,-1,pp_18,icub,clamp,2021_Dec_24_1018,exp,2021.2.3,59.968916791652426,
left,go,0,0,0,0,7,0,42,0,251.846538066864,None,1,1.153472900390625,251.846538066864,None,253.12596607208252,None,254.11833214759827,254.46944403648376,254.11833214759827,254.46944403648376,253.12596607208252,None,253.12596607208252,None,253.12596607208252,None,1,True,374.8798370361328,924.8924255371094,left,256.33775901794434,None,-1,-1,pp_18,icub,clamp,2021_Dec_24_1018,exp,2021.2.3,59.968916791652426,
right,stop,0,0,0,0,7,1,43,5,256.8694751262665,None,1,0.9363260269165039,256.8694751262665,None,257.8963701725006,None,258.902822971344,259.25050806999207,258.902822971344,259.25050806999207,257.8963701725006,None,257.8963701725006,None,257.8963701725006,None,0,True,285.0470542907715,701.7855644226074,right,260.7732071876526,None,550,550,pp_18,icub,clamp,2021_Dec_24_1018,exp,2021.2.3,59.968916791652426,
left,go,0,0,0,0,7,2,44,0,261.27260518074036,None,1,0.8367650508880615,261.27260518074036,None,262.18457412719727,None,263.1798930168152,263.51572608947754,263.1798930168152,263.51572608947754,262.18457412719727,None,262.18457412719727,None,262.18457412719727,None,1,True,394.2239284515381,925.8368015289307,left,265.413104057312,None,-1,-1,pp_18,icub,clamp,2021_Dec_24_1018,exp,2021.2.3,59.968916791652426,
left,stop,0,0,0,0,7,3,45,2,265.9223611354828,None,1,1.493743896484375,265.9223611354828,None,267.51652002334595,None,268.53708505630493,268.89098501205444,268.53708505630493,268.89098501205444,267.51652002334595,None,267.51652002334595,None,267.51652002334595,None,1,True,431.8656921386719,-1.0,-1,272.85211396217346,None,550,500,pp_18,icub,clamp,2021_Dec_24_1018,exp,2021.2.3,59.968916791652426,
left,go,0,0,0,0,7,4,46,1,273.38279008865356,None,1,1.0309569835662842,273.38279008865356,None,274.55047702789307,None,275.5303499698639,275.88702917099,275.5303499698639,275.88702917099,274.55047702789307,None,274.55047702789307,None,274.55047702789307,None,1,True,368.38722229003906,984.0481281280518,left,277.77178406715393,None,-1,-1,pp_18,icub,clamp,2021_Dec_24_1018,exp,2021.2.3,59.968916791652426,
left,go,0,0,0,0,7,5,47,0,278.2696461677551,None,1,1.1257290840148926,278.2696461677551,None,279.4805340766907,None,280.49618005752563,280.8378541469574,280.49618005752563,280.8378541469574,279.4805340766907,None,279.4805340766907,None,279.4805340766907,None,1,True,330.1687240600586,1035.6776714324951,left,282.72065711021423,None,-1,-1,pp_18,icub,clamp,2021_Dec_24_1018,exp,2021.2.3,59.968916791652426,
left,go,0,0,0,0,8,0,48,0,283.23773097991943,None,1,0.8344199657440186,283.23773097991943,None,284.15236711502075,None,285.147341966629,285.49584007263184,285.147341966629,285.49584007263184,284.15236711502075,None,284.15236711502075,None,284.15236711502075,None,1,True,341.0377502441406,625.4687309265137,left,286.98795104026794,None,-1,-1,pp_18,icub,clamp,2021_Dec_24_1018,exp,2021.2.3,59.968916791652426,
right,go,0,0,0,0,8,1,49,3,287.52273297309875,None,1,0.8796989917755127,287.52273297309875,None,288.4960401058197,None,289.5142831802368,289.8705041408539,289.5142831802368,289.8705041408539,288.4960401058197,None,288.4960401058197,None,288.4960401058197,None,1,True,380.13195991516113,837.9433155059814,right,291.60976815223694,None,-1,-1,pp_18,icub,clamp,2021_Dec_24_1018,exp,2021.2.3,59.968916791652426,
right,stop,0,0,0,0,8,2,50,5,292.1233739852905,None,1,1.0724799633026123,292.1233739852905,None,293.28640699386597,None,294.3089029788971,294.6582269668579,294.3089029788971,294.6582269668579,293.28640699386597,None,293.28640699386597,None,293.28640699386597,None,0,True,291.1086082458496,582.4592113494873,right,296.0445921421051,None,600,500,pp_18,icub,clamp,2021_Dec_24_1018,exp,2021.2.3,59.968916791652426,
right,go,0,0,0,0,8,3,51,3,296.5604901313782,None,1,0.9075069427490234,296.5604901313782,None,297.5964469909668,None,298.61025619506836,298.97363901138306,298.61025619506836,298.97363901138306,297.5964469909668,None,297.5964469909668,None,297.5964469909668,None,1,True,402.3721218109131,818.1867599487305,right,300.7258081436157,None,-1,-1,pp_18,icub,clamp,2021_Dec_24_1018,exp,2021.2.3,59.968916791652426,
left,go,0,0,0,0,8,4,52,0,301.25333619117737,None,1,0.7898259162902832,301.25333619117737,None,302.1623010635376,None,303.15654397010803,303.48135113716125,303.15654397010803,303.48135113716125,302.1623010635376,None,302.1623010635376,None,302.1623010635376,None,1,True,358.43563079833984,913.2437705993652,left,305.32527804374695,None,-1,-1,pp_18,icub,clamp,2021_Dec_24_1018,exp,2021.2.3,59.968916791652426,
right,stop,0,0,0,0,8,5,53,5,305.84108304977417,None,1,0.7448430061340332,305.84108304977417,None,306.6898510456085,None,307.72139406204224,308.0502781867981,307.72139406204224,308.0502781867981,306.6898510456085,None,306.6898510456085,None,306.6898510456085,None,1,True,380.7361125946045,-1.0,-1,311.95337104797363,None,600,450,pp_18,icub,clamp,2021_Dec_24_1018,exp,2021.2.3,59.968916791652426,
left,go,0,0,0,0,9,0,54,0,312.48655700683594,None,1,0.726032018661499,312.48655700683594,None,313.34467697143555,None,314.3265881538391,314.6872351169586,314.3265881538391,314.6872351169586,313.34467697143555,None,313.34467697143555,None,313.34467697143555,None,1,True,403.6750793457031,935.0433349609375,left,316.57646799087524,None,-1,-1,pp_18,icub,clamp,2021_Dec_24_1018,exp,2021.2.3,59.968916791652426,
right,go,0,0,0,0,9,1,55,3,317.0930850505829,None,1,0.5931699275970459,317.0930850505829,None,317.8192241191864,None,318.8436269760132,319.19297218322754,318.8436269760132,319.19297218322754,317.8192241191864,None,317.8192241191864,None,317.8192241191864,None,1,True,389.2362117767334,813.90380859375,right,320.9012870788574,None,-1,-1,pp_18,icub,clamp,2021_Dec_24_1018,exp,2021.2.3,59.968916791652426,
right,go,0,0,0,0,9,2,56,4,321.4105131626129,None,1,0.9329531192779541,321.4105131626129,None,322.44421005249023,None,323.46739315986633,323.8228840827942,323.46739315986633,323.8228840827942,322.44421005249023,None,322.44421005249023,None,322.44421005249023,None,1,True,367.36607551574707,686.5246295928955,right,325.3966431617737,None,-1,-1,pp_18,icub,clamp,2021_Dec_24_1018,exp,2021.2.3,59.968916791652426,
right,go,0,0,0,0,9,3,57,4,325.9103310108185,None,1,0.8346800804138184,325.9103310108185,None,326.8254520893097,None,327.84945607185364,328.2042291164398,327.84945607185364,328.2042291164398,326.8254520893097,None,326.8254520893097,None,326.8254520893097,None,1,True,390.3539180755615,748.1982707977295,right,329.8325490951538,None,-1,-1,pp_18,icub,clamp,2021_Dec_24_1018,exp,2021.2.3,59.968916791652426,
right,go,0,0,0,0,9,4,58,3,330.36564016342163,None,1,0.8133301734924316,330.36564016342163,None,331.2800409793854,None,332.2813391685486,332.64088916778564,332.2813391685486,332.64088916778564,331.2800409793854,None,331.2800409793854,None,331.2800409793854,None,1,True,386.83581352233887,758.9695453643799,right,334.3145179748535,None,-1,-1,pp_18,icub,clamp,2021_Dec_24_1018,exp,2021.2.3,59.968916791652426,
left,go,0,0,0,0,9,5,59,1,334.830726146698,None,1,0.8183150291442871,334.830726146698,None,335.78128600120544,None,336.79477310180664,337.1582269668579,336.79477310180664,337.1582269668579,335.78128600120544,None,335.78128600120544,None,335.78128600120544,None,1,True,423.16460609436035,741.1155700683594,left,338.83811497688293,None,-1,-1,pp_18,icub,clamp,2021_Dec_24_1018,exp,2021.2.3,59.968916791652426,
right,go,0,0,0,0,10,0,60,3,339.35584902763367,None,1,0.6711509227752686,339.35584902763367,None,340.14483618736267,None,341.17226004600525,341.51889300346375,341.17226004600525,341.51889300346375,340.14483618736267,None,340.14483618736267,None,340.14483618736267,None,1,True,631.0620307922363,629.3599605560303,right,343.2867090702057,None,-1,-1,pp_18,icub,clamp,2021_Dec_24_1018,exp,2021.2.3,59.968916791652426,
left,go,0,0,0,0,10,1,61,1,343.80560398101807,None,1,0.6703050136566162,343.80560398101807,None,344.59381103515625,None,345.59450507164,345.9473171234131,345.59450507164,345.9473171234131,344.59381103515625,None,344.59381103515625,None,344.59381103515625,None,1,True,414.42131996154785,692.7790641784668,left,347.5885360240936,None,-1,-1,pp_18,icub,clamp,2021_Dec_24_1018,exp,2021.2.3,59.968916791652426,
right,go,0,0,0,0,10,2,62,3,348.1090850830078,None,1,0.6932380199432373,348.1090850830078,None,348.8955340385437,None,349.90508008003235,350.2447819709778,349.90508008003235,350.2447819709778,348.8955340385437,None,348.8955340385437,None,348.8955340385437,None,1,True,641.3230895996094,628.0255317687988,right,352.0354640483856,None,-1,-1,pp_18,icub,clamp,2021_Dec_24_1018,exp,2021.2.3,59.968916791652426,
left,go,0,0,0,0,10,3,63,1,352.54927706718445,None,1,0.6111481189727783,352.54927706718445,None,353.27541613578796,None,354.3045451641083,354.6679470539093,354.3045451641083,354.6679470539093,353.27541613578796,None,353.27541613578796,None,353.27541613578796,None,1,True,535.5086326599121,680.0386905670166,left,356.36577010154724,None,-1,-1,pp_18,icub,clamp,2021_Dec_24_1018,exp,2021.2.3,59.968916791652426,
right,go,0,0,0,0,10,4,64,4,356.8759880065918,None,1,0.5669288635253906,356.8759880065918,None,357.5438630580902,None,358.536523103714,358.8625919818878,358.536523103714,358.8625919818878,357.5438630580902,None,357.5438630580902,None,357.5438630580902,None,1,True,485.3224754333496,587.0599746704102,right,360.5052251815796,None,-1,-1,pp_18,icub,clamp,2021_Dec_24_1018,exp,2021.2.3,59.968916791652426,
left,go,0,0,0,0,10,5,65,0,361.0141010284424,None,1,0.501899003982544,361.0141010284424,None,361.6162350177765,None,362.6167321205139,362.9607310295105,362.6167321205139,362.9607310295105,361.6162350177765,None,361.6162350177765,None,361.6162350177765,None,1,True,288.2380485534668,600.6307601928711,left,364.38261914253235,None,-1,-1,pp_18,icub,clamp,2021_Dec_24_1018,exp,2021.2.3,59.968916791652426,
right,stop,0,0,0,0,11,0,66,5,364.8855891227722,None,1,0.521759033203125,364.8855891227722,None,365.492879152298,None,366.5139009952545,366.8691771030426,366.5139009952545,366.8691771030426,365.492879152298,None,365.492879152298,None,365.492879152298,None,0,True,416.32723808288574,552.1562099456787,right,368.33323311805725,None,600,500,pp_18,icub,clamp,2021_Dec_24_1018,exp,2021.2.3,59.968916791652426,
left,go,0,0,0,0,11,1,67,1,368.84113097190857,None,1,0.8938751220703125,368.84113097190857,None,369.81536507606506,None,370.8151099681854,371.1756360530853,370.8151099681854,371.1756360530853,369.81536507606506,None,369.81536507606506,None,369.81536507606506,None,1,True,432.50322341918945,947.2062587738037,left,373.0859410762787,None,-1,-1,pp_18,icub,clamp,2021_Dec_24_1018,exp,2021.2.3,59.968916791652426,
left,stop,0,0,0,0,11,2,68,2,373.58534598350525,None,1,0.5045280456542969,373.58534598350525,None,374.18937611579895,None,375.2205181121826,375.56702613830566,375.2205181121826,375.56702613830566,374.18937611579895,None,374.18937611579895,None,374.18937611579895,None,0,True,382.3108673095703,748.3711242675781,left,377.22844099998474,None,600,450,pp_18,icub,clamp,2021_Dec_24_1018,exp,2021.2.3,59.968916791652426,
right,go,0,0,0,0,11,3,69,3,377.7449791431427,None,1,0.613785982131958,377.7449791431427,None,378.4675190448761,None,379.460736989975,379.81511998176575,379.460736989975,379.81511998176575,378.4675190448761,None,378.4675190448761,None,378.4675190448761,None,1,True,614.9919033050537,764.9960517883301,right,381.7342720031738,None,-1,-1,pp_18,icub,clamp,2021_Dec_24_1018,exp,2021.2.3,59.968916791652426,
right,stop,0,0,0,0,11,4,70,5,382.24692702293396,None,1,0.6070938110351562,382.24692702293396,None,382.97342014312744,None,384.00544118881226,384.33345913887024,384.00544118881226,384.33345913887024,382.97342014312744,None,382.97342014312744,None,382.97342014312744,None,1,True,346.00138664245605,-1.0,-1,388.2108771800995,None,550,450,pp_18,icub,clamp,2021_Dec_24_1018,exp,2021.2.3,59.968916791652426,
left,stop,0,0,0,0,11,5,71,2,388.7410521507263,None,1,0.5192949771881104,388.7410521507263,None,389.35162019729614,None,390.3262860774994,390.66979813575745,390.3262860774994,390.66979813575745,389.35162019729614,None,389.35162019729614,None,389.35162019729614,None,0,False,-1.0,-1.0,-1,391.13957715034485,None,,,pp_18,icub,clamp,2021_Dec_24_1018,exp,2021.2.3,59.968916791652426,
right,go,0,0,0,0,12,0,72,3,391.63345098495483,None,1,1.9256870746612549,391.63345098495483,None,393.6444411277771,None,394.63248014450073,394.9865610599518,394.63248014450073,394.9865610599518,393.6444411277771,None,393.6444411277771,None,393.6444411277771,None,1,True,409.85751152038574,758.5463523864746,right,396.69122314453125,None,-1,-1,pp_18,icub,clamp,2021_Dec_24_1018,exp,2021.2.3,59.968916791652426,
right,stop,0,0,0,0,12,1,73,5,397.18788409233093,None,1,0.7448289394378662,397.18788409233093,None,398.03954315185547,None,399.0686299800873,399.4305601119995,399.0686299800873,399.4305601119995,398.03954315185547,None,398.03954315185547,None,398.03954315185547,None,1,True,353.01733016967773,-1.0,-1,403.2735860347748,None,550,500,pp_18,icub,clamp,2021_Dec_24_1018,exp,2021.2.3,59.968916791652426,
right,go,0,0,0,0,12,2,74,3,403.80421900749207,None,1,0.6531198024749756,403.80421900749207,None,404.5395700931549,None,405.53583312034607,405.89265418052673,405.53583312034607,405.89265418052673,404.5395700931549,None,404.5395700931549,None,404.5395700931549,None,1,True,434.612512588501,628.7717819213867,right,407.4820110797882,None,-1,-1,pp_18,icub,clamp,2021_Dec_24_1018,exp,2021.2.3,59.968916791652426,
left,stop,0,0,0,0,12,3,75,2,407.98715901374817,None,1,0.8696160316467285,407.98715901374817,None,408.96333599090576,None,409.98021507263184,410.31836104393005,409.98021507263184,410.31836104393005,408.96333599090576,None,408.96333599090576,None,408.96333599090576,None,0,True,471.18616104125977,692.5432682037354,left,412.0111379623413,None,550,550,pp_18,icub,clamp,2021_Dec_24_1018,exp,2021.2.3,59.968916791652426,
right,go,0,0,0,0,12,4,76,3,412.507954120636,None,1,0.8736798763275146,412.507954120636,None,413.48150396347046,None,414.5146040916443,414.8721911907196,414.5146040916443,414.8721911907196,413.48150396347046,None,413.48150396347046,None,413.48150396347046,None,1,True,415.0500297546387,769.2360877990723,right,416.55126118659973,None,-1,-1,pp_18,icub,clamp,2021_Dec_24_1018,exp,2021.2.3,59.968916791652426,
left,go,0,0,0,0,12,5,77,1,417.06039905548096,None,1,0.7101290225982666,417.06039905548096,None,417.85098910331726,None,418.8849129676819,419.246258020401,418.8849129676819,419.246258020401,417.85098910331726,None,417.85098910331726,None,417.85098910331726,None,1,True,445.0523853302002,633.9335441589355,left,420.80749917030334,None,-1,-1,pp_18,icub,clamp,2021_Dec_24_1018,exp,2021.2.3,59.968916791652426,
left,go,1,0,1,0,0,0,0,1,448.44537901878357,None,1,2.459022045135498,448.44537901878357,None,451.010617017746,None,None,None,None,None,451.010617017746,None,451.010617017746,None,451.010617017746,None,0,False,-1.0,-1.0,-1,451.24661898612976,None,,,pp_18,icub,clamp,2021_Dec_24_1018,exp,2021.2.3,59.968916791652426,
right,go,1,0,1,0,0,1,1,4,451.7711479663849,None,1,0.7520241737365723,451.7711479663849,None,452.6311891078949,None,453.6444191932678,454.00926208496094,453.6444191932678,454.00926208496094,452.6311891078949,None,452.6311891078949,None,452.6311891078949,None,1,True,937.4067783355713,676.1369705200195,right,456.1380729675293,None,-1,-1,pp_18,icub,clamp,2021_Dec_24_1018,exp,2021.2.3,59.968916791652426,
right,go,1,0,1,0,0,2,2,4,456.6460511684418,None,1,0.6676390171051025,456.6460511684418,None,457.4364080429077,None,458.4446301460266,458.77535605430603,458.4446301460266,458.77535605430603,457.4364080429077,None,457.4364080429077,None,457.4364080429077,None,1,True,173.79355430603027,686.2733364105225,right,460.2073211669922,None,-1,-1,pp_18,icub,clamp,2021_Dec_24_1018,exp,2021.2.3,59.968916791652426,
right,go,1,0,1,0,0,3,3,4,460.70889616012573,None,1,0.7632088661193848,460.70889616012573,None,461.5626060962677,None,462.56966519355774,462.9201560020447,462.56966519355774,462.9201560020447,461.5626060962677,None,461.5626060962677,None,461.5626060962677,None,1,True,423.8476753234863,634.4194412231445,right,464.5032379627228,None,-1,-1,pp_18,icub,clamp,2021_Dec_24_1018,exp,2021.2.3,59.968916791652426,
left,stop,1,0,1,0,0,4,4,2,465.0155780315399,None,1,0.6949801445007324,465.0155780315399,None,465.80486702919006,None,466.800528049469,467.16652607917786,466.800528049469,467.16652607917786,465.80486702919006,None,465.80486702919006,None,465.80486702919006,None,0,True,199.83506202697754,565.9835338592529,left,468.4658451080322,None,500,550,pp_18,icub,clamp,2021_Dec_24_1018,exp,2021.2.3,59.968916791652426,
left,go,1,0,1,0,0,5,5,0,468.981290102005,None,1,0.8122239112854004,468.981290102005,None,469.8940541744232,None,470.90933203697205,471.2787289619446,470.90933203697205,471.2787289619446,469.8940541744232,None,469.8940541744232,None,469.8940541744232,None,1,True,409.3935489654541,802.037239074707,left,472.98445105552673,None,-1,-1,pp_18,icub,clamp,2021_Dec_24_1018,exp,2021.2.3,59.968916791652426,
right,go,1,0,1,0,1,0,6,3,473.51190400123596,None,1,0.7534840106964111,473.51190400123596,None,474.36559104919434,None,475.36419701576233,475.71920919418335,475.36419701576233,475.71920919418335,474.36559104919434,None,474.36559104919434,None,474.36559104919434,None,1,True,371.83570861816406,703.951358795166,right,477.3223841190338,None,-1,-1,pp_18,icub,clamp,2021_Dec_24_1018,exp,2021.2.3,59.968916791652426,
right,go,1,0,1,0,1,1,7,4,477.8283340930939,None,1,0.7018492221832275,477.8283340930939,None,478.6208140850067,None,479.6139271259308,479.97150206565857,479.6139271259308,479.97150206565857,478.6208140850067,None,478.6208140850067,None,478.6208140850067,None,1,True,313.0042552947998,738.3859157562256,right,481.5419909954071,None,-1,-1,pp_18,icub,clamp,2021_Dec_24_1018,exp,2021.2.3,59.968916791652426,
left,go,1,0,1,0,1,2,8,0,482.0630850791931,None,1,0.5745029449462891,482.0630850791931,None,482.72821402549744,None,483.71922397613525,484.07249307632446,483.71922397613525,484.07249307632446,482.72821402549744,None,482.72821402549744,None,482.72821402549744,None,1,True,386.51490211486816,735.2981567382812,left,485.75096797943115,None,-1,-1,pp_18,icub,clamp,2021_Dec_24_1018,exp,2021.2.3,59.968916791652426,
left,stop,1,0,1,0,1,3,9,2,486.2646269798279,None,1,0.6008059978485107,486.2646269798279,None,486.9884901046753,None,487.9996621608734,488.3698539733887,487.9996621608734,488.3698539733887,486.9884901046753,None,486.9884901046753,None,486.9884901046753,None,1,True,333.94312858581543,-1.0,-1,492.1933491230011,None,450,550,pp_18,icub,clamp,2021_Dec_24_1018,exp,2021.2.3,59.968916791652426,
left,go,1,0,1,0,1,4,10,0,492.7239980697632,None,1,0.8990309238433838,492.7239980697632,None,493.7058160305023,None,494.68586015701294,495.04536414146423,494.68586015701294,495.04536414146423,493.7058160305023,None,493.7058160305023,None,493.7058160305023,None,1,True,406.8737030029297,611.5751266479492,left,496.5933401584625,None,-1,-1,pp_18,icub,clamp,2021_Dec_24_1018,exp,2021.2.3,59.968916791652426,
right,stop,1,0,1,0,1,5,11,5,497.10634112358093,None,1,0.7848730087280273,497.10634112358093,None,498.01515102386475,None,499.0145480632782,499.37232398986816,499.0145480632782,499.37232398986816,498.01515102386475,None,498.01515102386475,None,498.01515102386475,None,0,False,-1.0,-1.0,-1,499.52482509613037,None,,,pp_18,icub,clamp,2021_Dec_24_1018,exp,2021.2.3,59.968916791652426,
left,go,1,0,1,0,2,0,12,0,500.0174481868744,None,1,1.3025238513946533,500.0174481868744,None,501.4334809780121,None,502.4075381755829,502.7482249736786,502.4075381755829,502.7482249736786,501.4334809780121,None,501.4334809780121,None,501.4334809780121,None,1,True,650.8665084838867,695.443868637085,left,504.66074109077454,None,-1,-1,pp_18,icub,clamp,2021_Dec_24_1018,exp,2021.2.3,59.968916791652426,
right,go,1,0,1,0,2,1,13,3,505.17141819000244,None,1,0.7592830657958984,505.17141819000244,None,506.01992297172546,None,507.0434319972992,507.39033603668213,507.0434319972992,507.39033603668213,506.01992297172546,None,506.01992297172546,None,506.01992297172546,None,1,True,396.1765766143799,695.542573928833,right,509.00435519218445,None,-1,-1,pp_18,icub,clamp,2021_Dec_24_1018,exp,2021.2.3,59.968916791652426,
left,go,1,0,1,0,2,2,14,1,509.5041961669922,None,1,0.6141788959503174,509.5041961669922,None,510.22968006134033,None,511.2220811843872,511.5644721984863,511.2220811843872,511.5644721984863,510.22968006134033,None,510.22968006134033,None,510.22968006134033,None,1,True,371.46925926208496,636.4326477050781,left,513.1310110092163,None,-1,-1,pp_18,icub,clamp,2021_Dec_24_1018,exp,2021.2.3,59.968916791652426,
right,stop,1,0,1,0,2,3,15,5,513.6608190536499,None,1,0.5996558666229248,513.6608190536499,None,514.3881859779358,None,515.391636133194,515.742917060852,515.391636133194,515.742917060852,514.3881859779358,None,514.3881859779358,None,514.3881859779358,None,0,True,387.3403072357178,743.1759834289551,right,517.4139771461487,None,500,550,pp_18,icub,clamp,2021_Dec_24_1018,exp,2021.2.3,59.968916791652426,
right,go,1,0,1,0,2,4,16,3,517.9350101947784,None,1,0.8942689895629883,517.9350101947784,None,518.9096171855927,None,519.9453930854797,520.3040351867676,519.9453930854797,520.3040351867676,518.9096171855927,None,518.9096171855927,None,518.9096171855927,None,1,True,651.1707305908203,825.0937461853027,right,522.269837141037,None,-1,-1,pp_18,icub,clamp,2021_Dec_24_1018,exp,2021.2.3,59.968916791652426,
left,go,1,0,1,0,2,5,17,0,522.7795221805573,None,1,0.47885608673095703,522.7795221805573,None,523.3813681602478,None,524.3849501609802,524.7116370201111,524.3849501609802,524.7116370201111,523.3813681602478,None,523.3813681602478,None,523.3813681602478,None,1,True,496.4780807495117,657.848596572876,left,526.4269189834595,None,-1,-1,pp_18,icub,clamp,2021_Dec_24_1018,exp,2021.2.3,59.968916791652426,
right,go,1,0,1,0,3,0,18,4,526.9461030960083,None,1,0.5368988513946533,526.9461030960083,None,527.607675075531,None,528.6221151351929,528.9767870903015,528.6221151351929,528.9767870903015,527.607675075531,None,527.607675075531,None,527.607675075531,None,1,True,365.67068099975586,659.0578556060791,right,530.5310771465302,None,-1,-1,pp_18,icub,clamp,2021_Dec_24_1018,exp,2021.2.3,59.968916791652426,
right,go,1,0,1,0,3,1,19,3,531.048192024231,None,1,0.399277925491333,531.048192024231,None,531.5278751850128,None,532.5547511577606,532.9088861942291,532.5547511577606,532.9088861942291,531.5278751850128,None,531.5278751850128,None,531.5278751850128,None,1,True,241.1642074584961,645.0891494750977,right,534.3139901161194,None,-1,-1,pp_18,icub,clamp,2021_Dec_24_1018,exp,2021.2.3,59.968916791652426,
left,go,1,0,1,0,3,2,20,1,534.8257241249084,None,1,0.43246006965637207,534.8257241249084,None,535.3693580627441,None,536.3721010684967,536.7352740764618,536.3721010684967,536.7352740764618,535.3693580627441,None,535.3693580627441,None,535.3693580627441,None,1,True,117.7370548248291,830.9981822967529,left,538.2014319896698,None,-1,-1,pp_18,icub,clamp,2021_Dec_24_1018,exp,2021.2.3,59.968916791652426,
left,go,1,0,1,0,3,3,21,0,538.7368130683899,None,1,0.4173250198364258,538.7368130683899,None,539.2781171798706,None,540.2950601577759,540.6454391479492,540.2950601577759,540.6454391479492,539.2781171798706,None,539.2781171798706,None,539.2781171798706,None,1,True,458.298921585083,580.1665782928467,left,542.2178981304169,None,-1,-1,pp_18,icub,clamp,2021_Dec_24_1018,exp,2021.2.3,59.968916791652426,
right,stop,1,0,1,0,3,4,22,5,542.745227098465,None,1,0.43694305419921875,542.745227098465,None,543.2866151332855,None,544.2896130084991,544.6364500522614,544.2896130084991,544.6364500522614,543.2866151332855,None,543.2866151332855,None,543.2866151332855,None,0,True,372.12157249450684,765.8812999725342,right,546.3151450157166,None,500,500,pp_18,icub,clamp,2021_Dec_24_1018,exp,2021.2.3,59.968916791652426,
right,go,1,0,1,0,3,5,23,3,546.8314650058746,None,1,1.038942813873291,546.8314650058746,None,547.9898979663849,None,548.9947981834412,549.342954158783,548.9947981834412,549.342954158783,547.9898979663849,None,547.9898979663849,None,547.9898979663849,None,1,True,529.5350551605225,530.9035778045654,right,550.9318990707397,None,-1,-1,pp_18,icub,clamp,2021_Dec_24_1018,exp,2021.2.3,59.968916791652426,
left,go,1,0,1,0,4,0,24,0,551.4504590034485,None,1,0.6384940147399902,551.4504590034485,None,552.1760280132294,None,553.171581029892,553.5346629619598,553.171581029892,553.5346629619598,552.1760280132294,None,552.1760280132294,None,552.1760280132294,None,1,True,576.2226581573486,564.7182464599609,left,555.1942009925842,None,-1,-1,pp_18,icub,clamp,2021_Dec_24_1018,exp,2021.2.3,59.968916791652426,
left,go,1,0,1,0,4,1,25,1,555.7097179889679,None,1,0.44808006286621094,555.7097179889679,None,556.2515740394592,None,557.2676651477814,557.6248459815979,557.2676651477814,557.6248459815979,556.2515740394592,None,556.2515740394592,None,556.2515740394592,None,1,True,441.18571281433105,473.4833240509033,left,559.0696890354156,None,-1,-1,pp_18,icub,clamp,2021_Dec_24_1018,exp,2021.2.3,59.968916791652426,
right,go,1,0,1,0,4,2,26,3,559.5823600292206,None,1,0.6050460338592529,559.5823600292206,None,560.305822134018,None,561.3252580165863,561.6836550235748,561.3252580165863,561.6836550235748,560.305822134018,None,560.305822134018,None,560.305822134018,None,1,True,341.98808670043945,664.5188331604004,right,563.1974341869354,None,-1,-1,pp_18,icub,clamp,2021_Dec_24_1018,exp,2021.2.3,59.968916791652426,
right,stop,1,0,1,0,4,3,27,5,563.7070801258087,None,1,0.5372581481933594,563.7070801258087,None,564.3671901226044,None,565.3906400203705,565.7348999977112,565.3906400203705,565.7348999977112,564.3671901226044,None,564.3671901226044,None,564.3671901226044,None,1,True,253.14855575561523,-1.0,-1,569.5134451389313,None,500,450,pp_18,icub,clamp,2021_Dec_24_1018,exp,2021.2.3,59.968916791652426,
right,stop,1,0,1,0,4,4,28,5,570.0446879863739,None,1,0.9100940227508545,570.0446879863739,None,571.091943025589,None,572.1027491092682,572.4584670066833,572.1027491092682,572.4584670066833,571.091943025589,None,571.091943025589,None,571.091943025589,None,1,True,324.30505752563477,-1.0,-1,576.3120551109314,None,500,500,pp_18,icub,clamp,2021_Dec_24_1018,exp,2021.2.3,59.968916791652426,
left,go,1,0,1,0,4,5,29,1,576.8438441753387,None,1,0.6479110717773438,576.8438441753387,None,577.5789129734039,None,578.5892131328583,578.9421801567078,578.5892131328583,578.9421801567078,577.5789129734039,None,577.5789129734039,None,577.5789129734039,None,1,True,555.0603866577148,711.4601135253906,left,580.7376351356506,None,-1,-1,pp_18,icub,clamp,2021_Dec_24_1018,exp,2021.2.3,59.968916791652426,
right,stop,1,0,1,0,5,0,30,5,581.2372870445251,None,1,0.8800139427185059,581.2372870445251,None,582.212769985199,None,583.2160930633545,583.5744869709015,583.2160930633545,583.5744869709015,582.212769985199,None,582.212769985199,None,582.212769985199,None,0,True,509.71317291259766,689.1999244689941,right,585.3066501617432,None,500,550,pp_18,icub,clamp,2021_Dec_24_1018,exp,2021.2.3,59.968916791652426,
left,go,1,0,1,0,5,1,31,1,585.8209869861603,None,1,1.0350899696350098,585.8209869861603,None,586.9801840782166,None,587.984395980835,588.3321549892426,587.984395980835,588.3321549892426,586.9801840782166,None,586.9801840782166,None,586.9801840782166,None,1,True,486.804723739624,701.3039588928223,left,590.0522119998932,None,-1,-1,pp_18,icub,clamp,2021_Dec_24_1018,exp,2021.2.3,59.968916791652426,
right,go,1,0,1,0,5,2,32,4,590.5572681427002,None,1,0.744981050491333,590.5572681427002,None,591.4026100635529,None,592.4160931110382,592.7735919952393,592.4160931110382,592.7735919952393,591.4026100635529,None,591.4026100635529,None,591.4026100635529,None,1,True,446.5827941894531,705.7943344116211,right,594.4474799633026,None,-1,-1,pp_18,icub,clamp,2021_Dec_24_1018,exp,2021.2.3,59.968916791652426,
right,stop,1,0,1,0,5,3,33,5,594.949844121933,None,1,0.6984879970550537,594.949844121933,None,595.7383890151978,None,596.767156124115,597.1181740760803,596.767156124115,597.1181740760803,595.7383890151978,None,595.7383890151978,None,595.7383890151978,None,1,True,365.77868461608887,-1.0,-1,601.0065631866455,None,500,500,pp_18,icub,clamp,2021_Dec_24_1018,exp,2021.2.3,59.968916791652426,
right,go,1,0,1,0,5,4,34,3,601.537703037262,None,1,0.706031084060669,601.537703037262,None,602.334156036377,None,603.3166391849518,603.6757180690765,603.3166391849518,603.6757180690765,602.334156036377,None,602.334156036377,None,602.334156036377,None,1,True,391.0717964172363,740.2310371398926,right,605.3365910053253,None,-1,-1,pp_18,icub,clamp,2021_Dec_24_1018,exp,2021.2.3,59.968916791652426,
right,go,1,0,1,0,5,5,35,3,605.8514139652252,None,1,0.7155990600585938,605.8514139652252,None,606.6423001289368,None,607.6472430229187,608.0066089630127,607.6472430229187,608.0066089630127,606.6423001289368,None,606.6423001289368,None,606.6423001289368,None,1,True,382.8566074371338,698.9953517913818,right,609.6094501018524,None,-1,-1,pp_18,icub,clamp,2021_Dec_24_1018,exp,2021.2.3,59.968916791652426,
right,stop,1,0,1,0,6,0,36,5,610.1369981765747,None,1,0.5542521476745605,610.1369981765747,None,610.8023021221161,None,611.8100440502167,612.1533939838409,611.8100440502167,612.1533939838409,610.8023021221161,None,610.8023021221161,None,610.8023021221161,None,1,True,309.19885635375977,-1.0,-1,616.0189740657806,None,500,550,pp_18,icub,clamp,2021_Dec_24_1018,exp,2021.2.3,59.968916791652426,
right,go,1,0,1,0,6,1,37,4,616.542426109314,None,1,0.8541669845581055,616.542426109314,None,617.5257251262665,None,618.4976739883423,618.8517601490021,618.4976739883423,618.8517601490021,617.5257251262665,None,617.5257251262665,None,617.5257251262665,None,1,True,682.7144622802734,753.2308101654053,right,620.8534631729126,None,-1,-1,pp_18,icub,clamp,2021_Dec_24_1018,exp,2021.2.3,59.968916791652426,
right,go,1,0,1,0,6,2,38,3,621.350426197052,None,1,0.7846100330352783,621.350426197052,None,622.244430065155,None,623.2568101882935,623.5986020565033,623.2568101882935,623.5986020565033,622.244430065155,None,622.244430065155,None,622.244430065155,None,1,True,364.89367485046387,624.7217655181885,right,625.1203010082245,None,-1,-1,pp_18,icub,clamp,2021_Dec_24_1018,exp,2021.2.3,59.968916791652426,
left,go,1,0,1,0,6,3,39,1,625.6288239955902,None,1,0.656019926071167,625.6288239955902,None,626.413360118866,None,627.4141960144043,627.7782981395721,627.4141960144043,627.7782981395721,626.413360118866,None,626.413360118866,None,626.413360118866,None,1,True,364.8858070373535,600.142240524292,left,629.2719311714172,None,-1,-1,pp_18,icub,clamp,2021_Dec_24_1018,exp,2021.2.3,59.968916791652426,
right,go,1,0,1,0,6,4,40,4,629.7772459983826,None,1,0.5276501178741455,629.7772459983826,None,630.3800530433655,None,631.4039471149445,631.7485091686249,631.4039471149445,631.7485091686249,630.3800530433655,None,630.3800530433655,None,630.3800530433655,None,1,True,301.12195014953613,486.5391254425049,right,633.0654850006104,None,-1,-1,pp_18,icub,clamp,2021_Dec_24_1018,exp,2021.2.3,59.968916791652426,
right,go,1,0,1,0,6,5,41,4,633.5817680358887,None,1,0.540369987487793,633.5817680358887,None,634.2455921173096,None,635.2554490566254,635.6076700687408,635.2554490566254,635.6076700687408,634.2455921173096,None,634.2455921173096,None,634.2455921173096,None,1,True,337.5129699707031,599.1768836975098,right,637.0650479793549,None,-1,-1,pp_18,icub,clamp,2021_Dec_24_1018,exp,2021.2.3,59.968916791652426,
left,stop,1,0,1,0,7,0,42,2,637.6013610363007,None,1,0.41745805740356445,637.6013610363007,None,638.1424629688263,None,639.157114982605,639.5116519927979,639.157114982605,639.5116519927979,638.1424629688263,None,638.1424629688263,None,638.1424629688263,None,0,True,354.9792766571045,559.0381622314453,left,640.9639251232147,None,500,600,pp_18,icub,clamp,2021_Dec_24_1018,exp,2021.2.3,59.968916791652426,
left,go,1,0,1,0,7,1,43,1,641.4786691665649,None,1,0.9011721611022949,641.4786691665649,None,642.5128700733185,None,643.5435881614685,643.8907880783081,643.5435881614685,643.8907880783081,642.5128700733185,None,642.5128700733185,None,642.5128700733185,None,1,True,360.3367805480957,851.0594367980957,left,645.6388440132141,None,-1,-1,pp_18,icub,clamp,2021_Dec_24_1018,exp,2021.2.3,59.968916791652426,
left,stop,1,0,1,0,7,2,44,2,646.1346120834351,None,1,0.5504879951477051,646.1346120834351,None,646.7996160984039,None,647.8003950119019,648.1613111495972,647.8003950119019,648.1613111495972,646.7996160984039,None,646.7996160984039,None,646.7996160984039,None,0,True,233.1695556640625,597.0752239227295,left,649.5267231464386,None,450,600,pp_18,icub,clamp,2021_Dec_24_1018,exp,2021.2.3,59.968916791652426,
right,go,1,0,1,0,7,3,45,4,650.0231549739838,None,1,1.1170680522918701,650.0231549739838,None,651.246572971344,None,652.2501561641693,652.6161181926727,652.2501561641693,652.6161181926727,651.246572971344,None,651.246572971344,None,651.246572971344,None,1,True,482.3613166809082,876.380205154419,right,654.5105731487274,None,-1,-1,pp_18,icub,clamp,2021_Dec_24_1018,exp,2021.2.3,59.968916791652426,
left,go,1,0,1,0,7,4,46,0,655.0258929729462,None,1,0.6354279518127441,655.0258929729462,None,655.750559091568,None,656.7765381336212,657.1292209625244,656.7765381336212,657.1292209625244,655.750559091568,None,655.750559091568,None,655.750559091568,None,1,True,401.13353729248047,688.1210803985596,left,658.7495391368866,None,-1,-1,pp_18,icub,clamp,2021_Dec_24_1018,exp,2021.2.3,59.968916791652426,
left,go,1,0,1,0,7,5,47,1,659.2535881996155,None,1,0.6793279647827148,659.2535881996155,None,660.042732000351,None,661.0436081886292,661.409716129303,661.0436081886292,661.409716129303,660.042732000351,None,660.042732000351,None,660.042732000351,None,1,True,464.56050872802734,598.8845825195312,left,663.0044600963593,None,-1,-1,pp_18,icub,clamp,2021_Dec_24_1018,exp,2021.2.3,59.968916791652426,
right,go,1,0,1,0,8,0,48,3,663.5207481384277,None,1,0.5273888111114502,663.5207481384277,None,664.1236820220947,None,665.1296360492706,665.4812459945679,665.1296360492706,665.4812459945679,664.1236820220947,None,664.1236820220947,None,664.1236820220947,None,1,True,353.0313968658447,564.1233921051025,right,666.927433013916,None,-1,-1,pp_18,icub,clamp,2021_Dec_24_1018,exp,2021.2.3,59.968916791652426,
right,stop,1,0,1,0,8,1,49,5,667.4641041755676,None,1,0.48181605339050293,667.4641041755676,None,668.0657939910889,None,669.0649411678314,669.4265639781952,669.0649411678314,669.4265639781952,668.0657939910889,None,668.0657939910889,None,668.0657939910889,None,0,True,436.4659786224365,566.2753582000732,right,670.9665570259094,None,400,600,pp_18,icub,clamp,2021_Dec_24_1018,exp,2021.2.3,59.968916791652426,
left,go,1,0,1,0,8,2,50,0,671.4691259860992,None,1,1.0885670185089111,671.4691259860992,None,672.6859540939331,None,673.7186620235443,674.0718321800232,673.7186620235443,674.0718321800232,672.6859540939331,None,672.6859540939331,None,672.6859540939331,None,1,True,409.7440242767334,768.4738636016846,left,675.7810649871826,None,-1,-1,pp_18,icub,clamp,2021_Dec_24_1018,exp,2021.2.3,59.968916791652426,
left,go,1,0,1,0,8,3,51,0,676.2942280769348,None,1,0.5075759887695312,676.2942280769348,None,676.9032759666443,None,677.9244811534882,678.2914760112762,677.9244811534882,678.2914760112762,676.9032759666443,None,676.9032759666443,None,676.9032759666443,None,1,True,448.0898380279541,519.2179679870605,left,679.7463901042938,None,-1,-1,pp_18,icub,clamp,2021_Dec_24_1018,exp,2021.2.3,59.968916791652426,
left,go,1,0,1,0,8,4,52,1,680.2601101398468,None,1,0.5630679130554199,680.2601101398468,None,680.9294171333313,None,681.9280571937561,682.2778730392456,681.9280571937561,682.2778730392456,680.9294171333313,None,680.9294171333313,None,680.9294171333313,None,1,True,587.0611667633057,587.5766277313232,left,683.978000164032,None,-1,-1,pp_18,icub,clamp,2021_Dec_24_1018,exp,2021.2.3,59.968916791652426,
left,stop,1,0,1,0,8,5,53,2,684.4837989807129,None,1,0.5600800514221191,684.4837989807129,None,685.1503400802612,None,686.1829390525818,686.5487949848175,686.1829390525818,686.5487949848175,685.1503400802612,None,685.1503400802612,None,685.1503400802612,None,0,True,427.4311065673828,553.2639026641846,left,688.0399100780487,None,400,550,pp_18,icub,clamp,2021_Dec_24_1018,exp,2021.2.3,59.968916791652426,
right,go,1,0,1,0,9,0,54,4,688.5500349998474,None,1,0.7001450061798096,688.5500349998474,None,689.3364720344543,None,690.3308410644531,690.6615071296692,690.3308410644531,690.6615071296692,689.3364720344543,None,689.3364720344543,None,689.3364720344543,None,1,True,478.0867099761963,1924.4282245635986,right,693.6195681095123,None,-1,-1,pp_18,icub,clamp,2021_Dec_24_1018,exp,2021.2.3,59.968916791652426,
right,stop,1,0,1,0,9,1,55,5,694.133819103241,None,1,0.41483187675476074,694.133819103241,None,694.6814570426941,None,695.699404001236,696.0515201091766,695.699404001236,696.0515201091766,694.6814570426941,None,694.6814570426941,None,694.6814570426941,None,0,True,322.4494457244873,720.6709384918213,right,697.6124169826508,None,350,550,pp_18,icub,clamp,2021_Dec_24_1018,exp,2021.2.3,59.968916791652426,
left,stop,1,0,1,0,9,2,56,2,698.1323080062866,None,1,2.904481887817383,698.1323080062866,None,701.1479389667511,None,702.1512441635132,702.514228105545,702.1512441635132,702.514228105545,701.1479389667511,None,701.1479389667511,None,701.1479389667511,None,1,True,404.01649475097656,-1.0,-1,706.4401741027832,None,350,500,pp_18,icub,clamp,2021_Dec_24_1018,exp,2021.2.3,59.968916791652426,
left,go,1,0,1,0,9,3,57,0,706.9335210323334,None,1,0.6866559982299805,706.9335210323334,None,707.7333359718323,None,708.7072319984436,709.0666580200195,708.7072319984436,709.0666580200195,707.7333359718323,None,707.7333359718323,None,707.7333359718323,None,1,True,392.34018325805664,766.2069797515869,left,710.793121099472,None,-1,-1,pp_18,icub,clamp,2021_Dec_24_1018,exp,2021.2.3,59.968916791652426,
left,go,1,0,1,0,9,4,58,0,711.3099000453949,None,1,0.6216099262237549,711.3099000453949,None,712.0358831882477,None,713.0523800849915,713.3805141448975,713.0523800849915,713.3805141448975,712.0358831882477,None,712.0358831882477,None,712.0358831882477,None,0,False,2986.9508743286133,-1.0,-1,719.9422521591187,None,-1,-1,pp_18,icub,clamp,2021_Dec_24_1018,exp,2021.2.3,59.968916791652426,
left,stop,1,0,1,0,9,5,59,2,720.4364650249481,None,1,0.7247409820556641,720.4364650249481,None,721.2968180179596,None,722.2762370109558,722.6273951530457,722.2762370109558,722.6273951530457,721.2968180179596,None,721.2968180179596,None,721.2968180179596,None,1,True,513.9403343200684,-1.0,-1,726.7089920043945,None,400,500,pp_18,icub,clamp,2021_Dec_24_1018,exp,2021.2.3,59.968916791652426,
right,go,1,0,1,0,10,0,60,3,727.2016050815582,None,1,0.6475579738616943,727.2016050815582,None,727.9372220039368,None,728.9395861625671,729.3061270713806,728.9395861625671,729.3061270713806,727.9372220039368,None,727.9372220039368,None,727.9372220039368,None,1,True,491.5602207183838,756.1490535736084,right,731.0837969779968,None,-1,-1,pp_18,icub,clamp,2021_Dec_24_1018,exp,2021.2.3,59.968916791652426,
right,stop,1,0,1,0,10,1,61,5,731.5937011241913,None,1,0.732288122177124,731.5937011241913,None,732.4463210105896,None,733.470400094986,733.8227159976959,733.470400094986,733.8227159976959,732.4463210105896,None,732.4463210105896,None,732.4463210105896,None,0,True,379.84752655029297,729.0499210357666,right,735.4611451625824,None,450,500,pp_18,icub,clamp,2021_Dec_24_1018,exp,2021.2.3,59.968916791652426,
left,go,1,0,1,0,10,2,62,1,735.9655981063843,None,1,1.1817939281463623,735.9655981063843,None,737.248211145401,None,738.2500631809235,738.5932540893555,738.2500631809235,738.5932540893555,737.248211145401,None,737.248211145401,None,737.248211145401,None,1,True,484.6060276031494,904.3388366699219,left,740.5155990123749,None,-1,-1,pp_18,icub,clamp,2021_Dec_24_1018,exp,2021.2.3,59.968916791652426,
right,go,1,0,1,0,10,3,63,4,741.029235124588,None,1,0.8421130180358887,741.029235124588,None,741.9997119903564,None,743.0018751621246,743.3522250652313,743.0018751621246,743.3522250652313,741.9997119903564,None,741.9997119903564,None,741.9997119903564,None,1,True,418.57361793518066,931.1966896057129,right,745.2314851284027,None,-1,-1,pp_18,icub,clamp,2021_Dec_24_1018,exp,2021.2.3,59.968916791652426,
left,stop,1,0,1,0,10,4,64,2,745.7464699745178,None,1,0.7108471393585205,745.7464699745178,None,746.5377571582794,None,747.5639510154724,747.9289140701294,747.5639510154724,747.9289140701294,746.5377571582794,None,746.5377571582794,None,746.5377571582794,None,1,True,331.8915367126465,-1.0,-1,751.776614189148,None,450,450,pp_18,icub,clamp,2021_Dec_24_1018,exp,2021.2.3,59.968916791652426,
left,go,1,0,1,0,10,5,65,1,752.3073720932007,None,1,0.8596069812774658,752.3073720932007,None,753.2903990745544,None,754.2958190441132,754.6533110141754,754.2958190441132,754.6533110141754,753.2903990745544,None,753.2903990745544,None,753.2903990745544,None,1,True,369.76003646850586,722.7375507354736,left,756.2718629837036,None,-1,-1,pp_18,icub,clamp,2021_Dec_24_1018,exp,2021.2.3,59.968916791652426,
left,stop,1,0,1,0,11,0,66,2,756.7908470630646,None,1,0.7357630729675293,756.7908470630646,None,757.6172440052032,None,758.6226191520691,758.9536280632019,758.6226191520691,758.9536280632019,757.6172440052032,None,757.6172440052032,None,757.6172440052032,None,1,True,306.34236335754395,-1.0,-1,762.8209381103516,None,500,450,pp_18,icub,clamp,2021_Dec_24_1018,exp,2021.2.3,59.968916791652426,
right,go,1,0,1,0,11,1,67,3,763.3532700538635,None,1,0.7277610301971436,763.3532700538635,None,764.2122840881348,None,765.1928560733795,765.5464470386505,765.1928560733795,765.5464470386505,764.2122840881348,None,764.2122840881348,None,764.2122840881348,None,1,True,507.14111328125,997.3394870758057,right,767.5813519954681,None,-1,-1,pp_18,icub,clamp,2021_Dec_24_1018,exp,2021.2.3,59.968916791652426,
left,go,1,0,1,0,11,2,68,0,768.0914361476898,None,1,0.7229561805725098,768.0914361476898,None,768.9426641464233,None,769.9461741447449,770.2976109981537,769.9461741447449,770.2976109981537,768.9426641464233,None,768.9426641464233,None,768.9426641464233,None,1,True,401.51000022888184,811.1839294433594,left,772.0400381088257,None,-1,-1,pp_18,icub,clamp,2021_Dec_24_1018,exp,2021.2.3,59.968916791652426,
right,go,1,0,1,0,11,3,69,3,772.5485780239105,None,1,0.5697009563446045,772.5485780239105,None,773.2192080020905,None,774.212571144104,774.5585250854492,774.212571144104,774.5585250854492,773.2192080020905,None,773.2192080020905,None,773.2192080020905,None,1,True,318.74990463256836,744.7648048400879,right,776.1911690235138,None,-1,-1,pp_18,icub,clamp,2021_Dec_24_1018,exp,2021.2.3,59.968916791652426,
left,stop,1,0,1,0,11,4,70,2,776.6978151798248,None,1,0.5835831165313721,776.6978151798248,None,777.3669500350952,None,778.3742530345917,778.7308151721954,778.3742530345917,778.7308151721954,777.3669500350952,None,777.3669500350952,None,777.3669500350952,None,0,True,481.4169406890869,710.808515548706,left,780.4513301849365,None,550,450,pp_18,icub,clamp,2021_Dec_24_1018,exp,2021.2.3,59.968916791652426,
left,stop,1,0,1,0,11,5,71,2,780.9623591899872,None,1,1.3449251651763916,780.9623591899872,None,782.4281930923462,None,783.4546589851379,783.8238260746002,783.4546589851379,783.8238260746002,782.4281930923462,None,782.4281930923462,None,782.4281930923462,None,1,True,438.2615089416504,-1.0,-1,787.7529900074005,None,500,450,pp_18,icub,clamp,2021_Dec_24_1018,exp,2021.2.3,59.968916791652426,
left,go,1,0,1,0,12,0,72,1,788.2458131313324,None,1,0.8570539951324463,788.2458131313324,None,789.2273101806641,None,790.1999640464783,790.5404560565948,790.1999640464783,790.5404560565948,789.2273101806641,None,789.2273101806641,None,789.2273101806641,None,1,True,487.5504970550537,846.9870090484619,left,792.4309051036835,None,-1,-1,pp_18,icub,clamp,2021_Dec_24_1018,exp,2021.2.3,59.968916791652426,
right,go,1,0,1,0,12,1,73,4,792.9377000331879,None,1,0.7115499973297119,792.9377000331879,None,793.7823100090027,None,794.7860171794891,795.141035079956,794.7860171794891,795.141035079956,793.7823100090027,None,793.7823100090027,None,793.7823100090027,None,1,True,350.649356842041,752.7949810028076,right,796.7618491649628,None,-1,-1,pp_18,icub,clamp,2021_Dec_24_1018,exp,2021.2.3,59.968916791652426,
left,stop,1,0,1,0,12,2,74,2,797.2714550495148,None,1,0.6904819011688232,797.2714550495148,None,798.0629661083221,None,799.0653619766235,799.4183521270752,799.0653619766235,799.4183521270752,798.0629661083221,None,798.0629661083221,None,798.0629661083221,None,1,True,456.7279815673828,-1.0,-1,803.4062461853027,None,550,450,pp_18,icub,clamp,2021_Dec_24_1018,exp,2021.2.3,59.968916791652426,
right,stop,1,0,1,0,12,3,75,5,803.9392611980438,None,1,1.1025199890136719,803.9392611980438,None,805.1686861515045,None,806.1477181911469,806.5003871917725,806.1477181911469,806.5003871917725,805.1686861515045,None,805.1686861515045,None,805.1686861515045,None,1,True,380.9783458709717,-1.0,-1,810.4532740116119,None,600,450,pp_18,icub,clamp,2021_Dec_24_1018,exp,2021.2.3,59.968916791652426,
right,stop,1,0,1,0,12,4,76,5,810.9855771064758,None,1,0.82818603515625,810.9855771064758,None,811.9069390296936,None,812.8899040222168,813.246603012085,812.8899040222168,813.246603012085,811.9069390296936,None,811.9069390296936,None,811.9069390296936,None,1,True,409.2283248901367,-1.0,-1,817.1824290752411,None,600,500,pp_18,icub,clamp,2021_Dec_24_1018,exp,2021.2.3,59.968916791652426,
left,stop,1,0,1,0,12,5,77,2,817.7127079963684,None,1,0.71002197265625,817.7127079963684,None,818.510409116745,None,819.4898691177368,819.8208281993866,819.4898691177368,819.8208281993866,818.510409116745,None,818.510409116745,None,818.510409116745,None,1,True,467.41580963134766,-1.0,-1,823.8631610870361,None,600,550,pp_18,icub,clamp,2021_Dec_24_1018,exp,2021.2.3,59.968916791652426,
left,go,2,0,2,0,0,0,0,0,873.9210150241852,None,1,4.199364900588989,873.9210150241852,None,878.2108681201935,None,879.2171771526337,879.5756461620331,879.2171771526337,879.5756461620331,878.2108681201935,None,878.2108681201935,None,878.2108681201935,None,1,True,1829.301357269287,524.3782997131348,left,882.4633870124817,None,-1,-1,pp_18,icub,clamp,2021_Dec_24_1018,exp,2021.2.3,59.968916791652426,
left,go,2,0,2,0,0,1,1,1,882.9699950218201,None,1,0.7459030151367188,882.9699950218201,None,883.8219501972198,None,884.8301010131836,885.1780920028687,884.8301010131836,885.1780920028687,883.8219501972198,None,883.8219501972198,None,883.8219501972198,None,1,True,43.13993453979492,446.2893009185791,left,886.1933281421661,None,-1,-1,pp_18,icub,clamp,2021_Dec_24_1018,exp,2021.2.3,59.968916791652426,
right,go,2,0,2,0,0,2,2,4,886.6964981555939,None,1,0.5705828666687012,886.6964981555939,None,887.3628420829773,None,888.363263130188,888.7222020626068,888.363263130188,888.7222020626068,887.3628420829773,None,887.3628420829773,None,887.3628420829773,None,1,True,51.56517028808594,704.1292190551758,right,890.011116027832,None,-1,-1,pp_18,icub,clamp,2021_Dec_24_1018,exp,2021.2.3,59.968916791652426,
left,stop,2,0,2,0,0,3,3,2,890.5328931808472,None,1,0.3881092071533203,890.5328931808472,None,891.0143201351166,None,892.0133609771729,892.3773140907288,892.0133609771729,892.3773140907288,891.0143201351166,None,891.0143201351166,None,891.0143201351166,None,0,False,-1.0,-1.0,-1,892.8719820976257,None,,,pp_18,icub,clamp,2021_Dec_24_1018,exp,2021.2.3,59.968916791652426,
left,stop,2,0,2,0,0,4,4,2,893.3655490875244,None,1,1.0268981456756592,893.3655490875244,None,894.4714629650116,None,895.4533801078796,895.7799880504608,895.4533801078796,895.7799880504608,894.4714629650116,None,894.4714629650116,None,894.4714629650116,None,0,True,370.03564834594727,615.196704864502,left,897.3385710716248,None,650,550,pp_18,icub,clamp,2021_Dec_24_1018,exp,2021.2.3,59.968916791652426,
right,go,2,0,2,0,0,5,5,3,897.848690032959,None,1,0.7333340644836426,897.848690032959,None,898.6980230808258,None,899.7037630081177,900.0734980106354,899.7037630081177,900.0734980106354,898.6980230808258,None,898.6980230808258,None,898.6980230808258,None,0,False,322.6175308227539,-1.0,-1,903.9155380725861,None,-1,-1,pp_18,icub,clamp,2021_Dec_24_1018,exp,2021.2.3,59.968916791652426,
right,stop,2,0,2,0,1,0,6,5,904.4472711086273,None,1,0.4841029644012451,904.4472711086273,None,905.0588359832764,None,906.0407330989838,906.3957281112671,906.0407330989838,906.3957281112671,905.0588359832764,None,905.0588359832764,None,905.0588359832764,None,1,True,411.6857051849365,-1.0,-1,910.3474111557007,None,600,550,pp_18,icub,clamp,2021_Dec_24_1018,exp,2021.2.3,59.968916791652426,
left,go,2,0,2,0,1,1,7,1,910.8425920009613,None,1,0.7357470989227295,910.8425920009613,None,911.7027571201324,None,912.7141101360321,913.064709186554,912.7141101360321,913.064709186554,911.7027571201324,None,911.7027571201324,None,911.7027571201324,None,1,True,421.1616516113281,1857.3861122131348,left,915.8755311965942,None,-1,-1,pp_18,icub,clamp,2021_Dec_24_1018,exp,2021.2.3,59.968916791652426,
left,stop,2,0,2,0,1,2,8,2,916.3789250850677,None,1,0.7229559421539307,916.3789250850677,None,917.2302470207214,None,918.239814043045,918.5970501899719,918.239814043045,918.5970501899719,917.2302470207214,None,917.2302470207214,None,917.2302470207214,None,0,True,467.53668785095215,785.8932018280029,left,920.3777730464935,None,600,600,pp_18,icub,clamp,2021_Dec_24_1018,exp,2021.2.3,59.968916791652426,
left,go,2,0,2,0,1,3,9,1,920.8805170059204,None,1,1.8323721885681152,920.8805170059204,None,922.8416881561279,None,923.846431016922,924.2045919895172,923.846431016922,924.2045919895172,922.8416881561279,None,922.8416881561279,None,922.8416881561279,None,1,True,380.40685653686523,909.0163707733154,left,926.046797990799,None,-1,-1,pp_18,icub,clamp,2021_Dec_24_1018,exp,2021.2.3,59.968916791652426,
right,go,2,0,2,0,1,4,10,3,926.5776309967041,None,1,0.701909065246582,926.5776309967041,None,927.3654291629791,None,928.3820910453796,928.7516791820526,928.3820910453796,928.7516791820526,927.3654291629791,None,927.3654291629791,None,927.3654291629791,None,0,False,3000.643253326416,-1.0,-1,932.2473521232605,None,,,pp_18,icub,clamp,2021_Dec_24_1018,exp,2021.2.3,59.968916791652426,
left,go,2,0,2,0,1,5,11,1,932.7686290740967,None,1,0.6146450042724609,932.7686290740967,None,933.5041420459747,None,934.4888281822205,934.8386809825897,934.4888281822205,934.8386809825897,933.5041420459747,None,933.5041420459747,None,933.5041420459747,None,1,True,461.2269401550293,709.8860740661621,left,936.5440270900726,None,-1,-1,pp_18,icub,clamp,2021_Dec_24_1018,exp,2021.2.3,59.968916791652426,
right,go,2,0,2,0,2,0,12,3,937.0612139701843,None,1,1.220404863357544,937.0612139701843,None,938.3815650939941,None,939.409991979599,939.7694380283356,939.409991979599,939.7694380283356,938.3815650939941,None,938.3815650939941,None,938.3815650939941,None,1,True,441.2999153137207,893.6066627502441,right,941.6162931919098,None,-1,-1,pp_18,icub,clamp,2021_Dec_24_1018,exp,2021.2.3,59.968916791652426,
right,go,2,0,2,0,2,1,13,3,942.1258840560913,None,1,0.6016309261322021,942.1258840560913,None,942.8505899906158,None,943.8532230854034,944.2062439918518,943.8532230854034,944.2062439918518,942.8505899906158,None,942.8505899906158,None,942.8505899906158,None,1,True,367.1290874481201,738.3692264556885,right,945.8370790481567,None,-1,-1,pp_18,icub,clamp,2021_Dec_24_1018,exp,2021.2.3,59.968916791652426,
left,go,2,0,2,0,2,2,14,1,946.3363971710205,None,1,0.6311311721801758,946.3363971710205,None,947.069256067276,None,948.0671010017395,948.4320960044861,948.0671010017395,948.4320960044861,947.069256067276,None,947.069256067276,None,947.069256067276,None,1,True,370.9104061126709,732.3956489562988,left,950.0692110061646,None,-1,-1,pp_18,icub,clamp,2021_Dec_24_1018,exp,2021.2.3,59.968916791652426,
left,stop,2,0,2,0,2,3,15,2,950.586587190628,None,1,0.6749651432037354,950.586587190628,None,951.3769011497498,None,952.4088439941406,952.7546761035919,952.4088439941406,952.7546761035919,951.3769011497498,None,951.3769011497498,None,951.3769011497498,None,1,True,233.19721221923828,-1.0,-1,956.5131070613861,None,550,600,pp_18,icub,clamp,2021_Dec_24_1018,exp,2021.2.3,59.968916791652426,
right,go,2,0,2,0,2,4,16,4,957.0457401275635,None,1,0.9564008712768555,957.0457401275635,None,958.090959072113,None,959.0696220397949,959.4225990772247,959.0696220397949,959.4225990772247,958.090959072113,None,958.090959072113,None,958.090959072113,None,1,True,388.7295722961426,786.489725112915,right,961.1619720458984,None,-1,-1,pp_18,icub,clamp,2021_Dec_24_1018,exp,2021.2.3,59.968916791652426,
right,stop,2,0,2,0,2,5,17,5,961.6752049922943,None,1,0.6585280895233154,961.6752049922943,None,962.4624750614166,None,963.4755551815033,963.83047914505,963.4755551815033,963.83047914505,962.4624750614166,None,962.4624750614166,None,962.4624750614166,None,0,True,293.53833198547363,732.4140071868896,right,965.3912570476532,None,600,600,pp_18,icub,clamp,2021_Dec_24_1018,exp,2021.2.3,59.968916791652426,
right,go,2,0,2,0,3,0,18,4,965.9228951931,None,1,0.8628380298614502,965.9228951931,None,966.8959131240845,None,967.8904731273651,968.2531311511993,967.8904731273651,968.2531311511993,966.8959131240845,None,966.8959131240845,None,966.8959131240845,None,1,True,400.4943370819092,893.3544158935547,right,970.0740389823914,None,-1,-1,pp_18,icub,clamp,2021_Dec_24_1018,exp,2021.2.3,59.968916791652426,
left,go,2,0,2,0,3,1,19,0,970.5938830375671,None,1,0.9799909591674805,970.5938830375671,None,971.6945750713348,None,972.7041749954224,973.05872797966,972.7041749954224,973.05872797966,971.6945750713348,None,971.6945750713348,None,971.6945750713348,None,1,True,404.07729148864746,927.0424842834473,left,974.9191291332245,None,-1,-1,pp_18,icub,clamp,2021_Dec_24_1018,exp,2021.2.3,59.968916791652426,
left,go,2,0,2,0,3,2,20,0,975.4469091892242,None,1,0.8125138282775879,975.4469091892242,None,976.3600511550903,None,977.3661031723022,977.7321710586548,977.3661031723022,977.7321710586548,976.3600511550903,None,976.3600511550903,None,976.3600511550903,None,1,True,425.50134658813477,770.3359127044678,left,979.4543340206146,None,-1,-1,pp_18,icub,clamp,2021_Dec_24_1018,exp,2021.2.3,59.968916791652426,
left,go,2,0,2,0,3,3,21,1,979.9625630378723,None,1,0.6460299491882324,979.9625630378723,None,980.7286911010742,None,981.7203741073608,982.0773310661316,981.7203741073608,982.0773310661316,980.7286911010742,None,980.7286911010742,None,980.7286911010742,None,1,True,413.2845401763916,794.6689128875732,left,983.81418800354,None,-1,-1,pp_18,icub,clamp,2021_Dec_24_1018,exp,2021.2.3,59.968916791652426,
left,go,2,0,2,0,3,4,22,1,984.3302900791168,None,1,0.6050879955291748,984.3302900791168,None,985.0582110881805,None,986.0572640895844,986.3822000026703,986.0572640895844,986.3822000026703,985.0582110881805,None,985.0582110881805,None,985.0582110881805,None,1,True,302.8419017791748,707.144021987915,left,987.9409561157227,None,-1,-1,pp_18,icub,clamp,2021_Dec_24_1018,exp,2021.2.3,59.968916791652426,
left,go,2,0,2,0,3,5,23,0,988.4611341953278,None,1,0.3914051055908203,988.4611341953278,None,988.9432351589203,None,989.9373571872711,990.2976331710815,989.9373571872711,990.2976331710815,988.9432351589203,None,988.9432351589203,None,988.9432351589203,None,1,True,341.86744689941406,687.3190402984619,left,991.8528549671173,None,-1,-1,pp_18,icub,clamp,2021_Dec_24_1018,exp,2021.2.3,59.968916791652426,
left,go,2,0,2,0,4,0,24,1,992.3697850704193,None,1,0.5886650085449219,992.3697850704193,None,993.0963850021362,None,994.1267280578613,994.489039182663,994.1267280578613,994.489039182663,993.0963850021362,None,993.0963850021362,None,993.0963850021362,None,1,True,389.4662857055664,718.4345722198486,left,996.0848021507263,None,-1,-1,pp_18,icub,clamp,2021_Dec_24_1018,exp,2021.2.3,59.968916791652426,
right,stop,2,0,2,0,4,1,25,5,996.6055130958557,None,1,0.6870789527893066,996.6055130958557,None,997.3991310596466,None,998.3978910446167,998.7584881782532,998.3978910446167,998.7584881782532,997.3991310596466,None,997.3991310596466,None,997.3991310596466,None,1,True,336.209774017334,-1.0,-1,1002.6475059986115,None,600,550,pp_18,icub,clamp,2021_Dec_24_1018,exp,2021.2.3,59.968916791652426,
left,go,2,0,2,0,4,2,26,0,1003.1781361103058,None,1,1.1858808994293213,1003.1781361103058,None,1004.4707980155945,None,1005.4527940750122,1005.8060290813446,1005.4527940750122,1005.8060290813446,1004.4707980155945,None,1004.4707980155945,None,1004.4707980155945,None,1,True,584.9967002868652,816.7004585266113,left,1007.7719151973724,None,-1,-1,pp_18,icub,clamp,2021_Dec_24_1018,exp,2021.2.3,59.968916791652426,
left,go,2,0,2,0,4,3,27,0,1008.2771430015564,None,1,0.6235110759735107,1008.2771430015564,None,1009.0083191394806,None,1010.0310220718384,1010.3789801597595,1010.0310220718384,1010.3789801597595,1009.0083191394806,None,1009.0083191394806,None,1009.0083191394806,None,1,True,108.54721069335938,716.315746307373,left,1011.7248561382294,None,-1,-1,pp_18,icub,clamp,2021_Dec_24_1018,exp,2021.2.3,59.968916791652426,
right,go,2,0,2,0,4,4,28,4,1012.2427000999451,None,1,0.5324149131774902,1012.2427000999451,None,1012.9035000801086,None,1013.9355280399323,1014.303503036499,1013.9355280399323,1014.303503036499,1012.9035000801086,None,1012.9035000801086,None,1012.9035000801086,None,1,True,270.89619636535645,723.7608432769775,right,1015.7869679927826,None,-1,-1,pp_18,icub,clamp,2021_Dec_24_1018,exp,2021.2.3,59.968916791652426,
right,stop,2,0,2,0,4,5,29,5,1016.3226640224457,None,1,0.40602803230285645,1016.3226640224457,None,1016.8617820739746,None,1017.8733100891113,1018.2251150608063,1017.8733100891113,1018.2251150608063,1016.8617820739746,None,1016.8617820739746,None,1016.8617820739746,None,0,True,291.3696765899658,744.8623180389404,right,1019.7914431095123,None,600,600,pp_18,icub,clamp,2021_Dec_24_1018,exp,2021.2.3,59.968916791652426,
left,go,2,0,2,0,5,0,30,0,1020.2968790531158,None,1,0.8405251502990723,1020.2968790531158,None,1021.2706091403961,None,1022.2873129844666,1022.626935005188,1022.2873129844666,1022.626935005188,1021.2706091403961,None,1021.2706091403961,None,1021.2706091403961,None,1,True,414.06893730163574,730.7441234588623,left,1024.3086199760437,None,-1,-1,pp_18,icub,clamp,2021_Dec_24_1018,exp,2021.2.3,59.968916791652426,
left,go,2,0,2,0,5,1,31,0,1024.8200590610504,None,1,0.7256338596343994,1024.8200590610504,None,1025.6704161167145,None,1026.6907360553741,1027.0473120212555,1026.6907360553741,1027.0473120212555,1025.6704161167145,None,1025.6704161167145,None,1025.6704161167145,None,1,True,357.8071594238281,761.6925239562988,left,1028.6809689998627,None,-1,-1,pp_18,icub,clamp,2021_Dec_24_1018,exp,2021.2.3,59.968916791652426,
right,stop,2,0,2,0,5,2,32,5,1029.1799311637878,None,1,0.6401538848876953,1029.1799311637878,None,1029.9046540260315,None,1030.9041981697083,1031.252865076065,1030.9041981697083,1031.252865076065,1029.9046540260315,None,1029.9046540260315,None,1029.9046540260315,None,0,True,475.726842880249,734.123706817627,right,1033.0000731945038,None,600,550,pp_18,icub,clamp,2021_Dec_24_1018,exp,2021.2.3,59.968916791652426,
left,go,2,0,2,0,5,3,33,0,1033.507847070694,None,1,0.9904630184173584,1033.507847070694,None,1034.604485988617,None,1035.5975210666656,1035.9496140480042,1035.5975210666656,1035.9496140480042,1034.604485988617,None,1034.604485988617,None,1034.604485988617,None,1,True,334.4573974609375,713.9565944671631,left,1037.5287640094757,None,-1,-1,pp_18,icub,clamp,2021_Dec_24_1018,exp,2021.2.3,59.968916791652426,
right,go,2,0,2,0,5,4,34,3,1038.02574300766,None,1,0.5116379261016846,1038.02574300766,None,1038.62793302536,None,1039.6617720127106,1039.9980809688568,1039.6617720127106,1039.9980809688568,1038.62793302536,None,1038.62793302536,None,1038.62793302536,None,1,True,329.30636405944824,961.2650871276855,right,1041.8136930465698,None,-1,-1,pp_18,icub,clamp,2021_Dec_24_1018,exp,2021.2.3,59.968916791652426,
left,go,2,0,2,0,5,5,35,1,1042.3240389823914,None,1,0.6773428916931152,1042.3240389823914,None,1043.1135611534119,None,1044.1309089660645,1044.4862341880798,1044.1309089660645,1044.4862341880798,1043.1135611534119,None,1043.1135611534119,None,1043.1135611534119,None,1,True,277.5459289550781,858.0782413482666,left,1046.139198064804,None,-1,-1,pp_18,icub,clamp,2021_Dec_24_1018,exp,2021.2.3,59.968916791652426,
left,go,2,0,2,0,6,0,36,1,1046.6545641422272,None,1,0.5879080295562744,1046.6545641422272,None,1047.32288813591,None,1048.3490960597992,1048.700548171997,1048.3490960597992,1048.700548171997,1047.32288813591,None,1047.32288813591,None,1047.32288813591,None,1,True,308.5479736328125,736.274003982544,left,1050.2614271640778,None,-1,-1,pp_18,icub,clamp,2021_Dec_24_1018,exp,2021.2.3,59.968916791652426,
left,stop,2,0,2,0,6,1,37,2,1050.7894661426544,None,1,0.5506930351257324,1050.7894661426544,None,1051.4542829990387,None,1052.4604201316833,1052.806568145752,1052.4604201316833,1052.806568145752,1051.4542829990387,None,1051.4542829990387,None,1051.4542829990387,None,0,True,346.346378326416,687.4847412109375,left,1054.3748981952667,None,600,500,pp_18,icub,clamp,2021_Dec_24_1018,exp,2021.2.3,59.968916791652426,
left,stop,2,0,2,0,6,2,38,2,1054.901528120041,None,1,0.9916958808898926,1054.901528120041,None,1056.0014781951904,None,1057.0108571052551,1057.3545379638672,1057.0108571052551,1057.3545379638672,1056.0014781951904,None,1056.0014781951904,None,1056.0014781951904,None,1,True,395.465612411499,-1.0,-1,1061.2833089828491,None,550,500,pp_18,icub,clamp,2021_Dec_24_1018,exp,2021.2.3,59.968916791652426,
right,go,2,0,2,0,6,3,39,3,1061.7797729969025,None,1,0.6569991111755371,1061.7797729969025,None,1062.516065120697,None,1063.4976019859314,1063.8553731441498,1063.4976019859314,1063.8553731441498,1062.516065120697,None,1062.516065120697,None,1062.516065120697,None,1,True,433.34126472473145,797.0013618469238,right,1065.6392171382904,None,-1,-1,pp_18,icub,clamp,2021_Dec_24_1018,exp,2021.2.3,59.968916791652426,
right,go,2,0,2,0,6,4,40,4,1066.1801040172577,None,1,0.6774659156799316,1066.1801040172577,None,1066.9691681861877,None,1067.975233078003,1068.3131160736084,1067.975233078003,1068.3131160736084,1066.9691681861877,None,1066.9691681861877,None,1066.9691681861877,None,1,True,311.2955093383789,680.2244186401367,right,1069.8638060092926,None,-1,-1,pp_18,icub,clamp,2021_Dec_24_1018,exp,2021.2.3,59.968916791652426,
right,stop,2,0,2,0,6,5,41,5,1070.3792731761932,None,1,0.6249761581420898,1070.3792731761932,None,1071.1090400218964,None,1072.112107038498,1072.4644510746002,1072.112107038498,1072.4644510746002,1071.1090400218964,None,1071.1090400218964,None,1071.1090400218964,None,0,True,291.6703224182129,665.0209426879883,right,1073.9658110141754,None,600,500,pp_18,icub,clamp,2021_Dec_24_1018,exp,2021.2.3,59.968916791652426,
right,go,2,0,2,0,7,0,42,4,1074.4767491817474,None,1,1.6875548362731934,1074.4767491817474,None,1076.2582421302795,None,1077.2767210006714,1077.629858970642,1077.2767210006714,1077.629858970642,1076.2582421302795,None,1076.2582421302795,None,1076.2582421302795,None,1,True,495.5768585205078,773.8964557647705,right,1079.4286770820618,None,-1,-1,pp_18,icub,clamp,2021_Dec_24_1018,exp,2021.2.3,59.968916791652426,
left,stop,2,0,2,0,7,1,43,2,1079.931428194046,None,1,0.6876499652862549,1079.931428194046,None,1080.7244980335236,None,1081.7352480888367,1082.0898129940033,1081.7352480888367,1082.0898129940033,1080.7244980335236,None,1080.7244980335236,None,1080.7244980335236,None,0,True,392.6081657409668,741.8954372406006,left,1083.7594211101532,None,600,450,pp_18,icub,clamp,2021_Dec_24_1018,exp,2021.2.3,59.968916791652426,
right,go,2,0,2,0,7,2,44,4,1084.283432006836,None,1,0.9138870239257812,1084.283432006836,None,1085.3172969818115,None,1086.3210561275482,1086.6712090969086,1086.3210561275482,1086.6712090969086,1085.3172969818115,None,1085.3172969818115,None,1085.3172969818115,None,1,True,464.47253227233887,857.985258102417,right,1088.5168771743774,None,-1,-1,pp_18,icub,clamp,2021_Dec_24_1018,exp,2021.2.3,59.968916791652426,
left,go,2,0,2,0,7,3,45,0,1089.025134086609,None,1,1.063843011856079,1089.025134086609,None,1090.1897909641266,None,1091.1933550834656,1091.543121099472,1091.1933550834656,1091.543121099472,1090.1897909641266,None,1090.1897909641266,None,1090.1897909641266,None,1,True,453.5088539123535,739.537239074707,left,1093.267757177353,None,-1,-1,pp_18,icub,clamp,2021_Dec_24_1018,exp,2021.2.3,59.968916791652426,
left,stop,2,0,2,0,7,4,46,2,1093.787831068039,None,1,0.7261769771575928,1093.787831068039,None,1094.6378049850464,None,1095.6405410766602,1095.9877259731293,1095.6405410766602,1095.9877259731293,1094.6378049850464,None,1094.6378049850464,None,1094.6378049850464,None,1,True,220.46971321105957,-1.0,-1,1099.739734172821,None,550,450,pp_18,icub,clamp,2021_Dec_24_1018,exp,2021.2.3,59.968916791652426,
right,go,2,0,2,0,7,5,47,3,1100.2723760604858,None,1,0.6682610511779785,1100.2723760604858,None,1101.0698001384735,None,1102.05344414711,1102.4080731868744,1102.05344414711,1102.4080731868744,1101.0698001384735,None,1101.0698001384735,None,1101.0698001384735,None,1,True,432.1606159210205,878.5781860351562,right,1104.2503080368042,None,-1,-1,pp_18,icub,clamp,2021_Dec_24_1018,exp,2021.2.3,59.968916791652426,
right,go,2,0,2,0,8,0,48,3,1104.767235994339,None,1,0.7837121486663818,1104.767235994339,None,1105.6788291931152,None,1106.6969480514526,1107.0670001506805,1106.6969480514526,1107.0670001506805,1105.6788291931152,None,1105.6788291931152,None,1105.6788291931152,None,1,True,525.2645015716553,800.727128982544,right,1108.878576040268,None,-1,-1,pp_18,icub,clamp,2021_Dec_24_1018,exp,2021.2.3,59.968916791652426,
left,go,2,0,2,0,8,1,49,1,1109.3939111232758,None,1,0.6431598663330078,1109.3939111232758,None,1110.1201071739197,None,1111.1347360610962,1111.4892761707306,1111.1347360610962,1111.4892761707306,1110.1201071739197,None,1110.1201071739197,None,1110.1201071739197,None,1,True,458.6482048034668,844.0423011779785,left,1113.31498503685,None,-1,-1,pp_18,icub,clamp,2021_Dec_24_1018,exp,2021.2.3,59.968916791652426,
right,go,2,0,2,0,8,2,50,3,1113.8459069728851,None,1,0.6259810924530029,1113.8459069728851,None,1114.5729429721832,None,1115.5890171527863,1115.9490699768066,1115.5890171527863,1115.9490699768066,1114.5729429721832,None,1114.5729429721832,None,1114.5729429721832,None,1,True,345.5336093902588,853.785514831543,right,1117.67568898201,None,-1,-1,pp_18,icub,clamp,2021_Dec_24_1018,exp,2021.2.3,59.968916791652426,
right,go,2,0,2,0,8,3,51,4,1118.1969170570374,None,1,0.45012402534484863,1118.1969170570374,None,1118.737785100937,None,1119.734482049942,1120.0837399959564,1119.734482049942,1120.0837399959564,1118.737785100937,None,1118.737785100937,None,1118.737785100937,None,1,True,403.00655364990234,760.6196403503418,right,1121.802798986435,None,-1,-1,pp_18,icub,clamp,2021_Dec_24_1018,exp,2021.2.3,59.968916791652426,
left,go,2,0,2,0,8,4,52,0,1122.320927143097,None,1,0.517784833908081,1122.320927143097,None,1122.9243521690369,None,1123.9269030094147,1124.2822360992432,1123.9269030094147,1124.2822360992432,1122.9243521690369,None,1122.9243521690369,None,1122.9243521690369,None,1,True,362.78343200683594,787.7109050750732,left,1125.9648001194,None,-1,-1,pp_18,icub,clamp,2021_Dec_24_1018,exp,2021.2.3,59.968916791652426,
right,go,2,0,2,0,8,5,53,4,1126.4785151481628,None,1,0.6686389446258545,1126.4785151481628,None,1127.2673630714417,None,1128.277023077011,1128.6359910964966,1128.277023077011,1128.6359910964966,1127.2673630714417,None,1127.2673630714417,None,1127.2673630714417,None,1,True,366.67680740356445,784.8796844482422,right,1130.3186321258545,None,-1,-1,pp_18,icub,clamp,2021_Dec_24_1018,exp,2021.2.3,59.968916791652426,
left,go,2,0,2,0,9,0,54,0,1130.8353381156921,None,1,0.4825568199157715,1130.8353381156921,None,1131.435317993164,None,1132.4449009895325,1132.8001000881195,1132.4449009895325,1132.8001000881195,1131.435317993164,None,1131.435317993164,None,1131.435317993164,None,1,True,351.3975143432617,867.8712844848633,left,1134.550302028656,None,-1,-1,pp_18,icub,clamp,2021_Dec_24_1018,exp,2021.2.3,59.968916791652426,
right,stop,2,0,2,0,9,1,55,5,1135.0604209899902,None,1,0.49646902084350586,1135.0604209899902,None,1135.667908191681,None,1136.6791620254517,1137.0347011089325,1136.6791620254517,1137.0347011089325,1135.667908191681,None,1135.667908191681,None,1135.667908191681,None,1,True,55.19604682922363,-1.0,-1,1140.6215410232544,None,600,450,pp_18,icub,clamp,2021_Dec_24_1018,exp,2021.2.3,59.968916791652426,
right,stop,2,0,2,0,9,2,56,5,1141.152801990509,None,1,1.1136560440063477,1141.152801990509,None,1142.381872177124,None,1143.3634979724884,1143.6908040046692,1143.3634979724884,1143.6908040046692,1142.381872177124,None,1142.381872177124,None,1142.381872177124,None,0,True,338.4816646575928,662.6992225646973,right,1145.2581701278687,None,600,500,pp_18,icub,clamp,2021_Dec_24_1018,exp,2021.2.3,59.968916791652426,
right,stop,2,0,2,0,9,3,57,5,1145.7679121494293,None,1,0.7361631393432617,1145.7679121494293,None,1146.6178381443024,None,1147.613310098648,1147.967537164688,1147.613310098648,1147.967537164688,1146.6178381443024,None,1146.6178381443024,None,1146.6178381443024,None,1,True,478.14464569091797,-1.0,-1,1151.9874050617218,None,600,450,pp_18,icub,clamp,2021_Dec_24_1018,exp,2021.2.3,59.968916791652426,
right,stop,2,0,2,0,9,4,58,5,1152.482321023941,None,1,0.5290429592132568,1152.482321023941,None,1153.0943930149078,None,1154.0746941566467,1154.4397921562195,1154.0746941566467,1154.4397921562195,1153.0943930149078,None,1153.0943930149078,None,1153.0943930149078,None,1,True,359.86995697021484,-1.0,-1,1158.3289980888367,None,600,500,pp_18,icub,clamp,2021_Dec_24_1018,exp,2021.2.3,59.968916791652426,
right,go,2,0,2,0,9,5,59,3,1158.861037015915,None,1,0.5433330535888672,1158.861037015915,None,1159.5341610908508,None,1160.5134241580963,1160.8736250400543,1160.5134241580963,1160.8736250400543,1159.5341610908508,None,1159.5341610908508,None,1159.5341610908508,None,1,True,457.0615291595459,704.3824195861816,right,1162.5611469745636,None,-1,-1,pp_18,icub,clamp,2021_Dec_24_1018,exp,2021.2.3,59.968916791652426,
left,stop,2,0,2,0,10,0,60,2,1163.0856521129608,None,1,0.7100198268890381,1163.0856521129608,None,1163.8761510849,None,1164.890941143036,1165.2547090053558,1164.890941143036,1165.2547090053558,1163.8761510849,None,1163.8761510849,None,1163.8761510849,None,0,True,485.21971702575684,695.6725120544434,left,1166.9547669887543,None,600,550,pp_18,icub,clamp,2021_Dec_24_1018,exp,2021.2.3,59.968916791652426,
left,go,2,0,2,0,10,1,61,0,1167.4689860343933,None,1,0.9619698524475098,1167.4689860343933,None,1168.5063381195068,None,1169.5059051513672,1169.8578841686249,1169.5059051513672,1169.8578841686249,1168.5063381195068,None,1168.5063381195068,None,1168.5063381195068,None,1,True,452.2824287414551,844.8488712310791,left,1171.6877830028534,None,-1,-1,pp_18,icub,clamp,2021_Dec_24_1018,exp,2021.2.3,59.968916791652426,
right,go,2,0,2,0,10,2,62,4,1172.2019259929657,None,1,0.817730188369751,1172.2019259929657,None,1173.1151480674744,None,1174.1126370429993,1174.4586770534515,1174.1126370429993,1174.4586770534515,1173.1151480674744,None,1173.1151480674744,None,1173.1151480674744,None,1,True,293.05100440979004,827.7013301849365,right,1176.142114162445,None,-1,-1,pp_18,icub,clamp,2021_Dec_24_1018,exp,2021.2.3,59.968916791652426,
right,go,2,0,2,0,10,3,63,4,1176.658679008484,None,1,0.5818650722503662,1176.658679008484,None,1177.3257231712341,None,1178.3436071872711,1178.7073991298676,1178.3436071872711,1178.7073991298676,1177.3257231712341,None,1177.3257231712341,None,1177.3257231712341,None,1,True,349.53832626342773,687.5345706939697,right,1180.234367132187,None,-1,-1,pp_18,icub,clamp,2021_Dec_24_1018,exp,2021.2.3,59.968916791652426,
right,go,2,0,2,0,10,4,64,3,1180.7541539669037,None,1,0.6605072021484375,1180.7541539669037,None,1181.5421869754791,None,1182.5370781421661,1182.9061930179596,1182.5370781421661,1182.9061930179596,1181.5421869754791,None,1181.5421869754791,None,1181.5421869754791,None,1,True,24.120092391967773,924.3180751800537,right,1184.3851871490479,None,-1,-1,pp_18,icub,clamp,2021_Dec_24_1018,exp,2021.2.3,59.968916791652426,
right,go,2,0,2,0,10,5,65,3,1184.9056091308594,None,1,0.5572710037231445,1184.9056091308594,None,1185.5689301490784,None,1186.569542169571,1186.904695034027,1186.569542169571,1186.904695034027,1185.5689301490784,None,1185.5689301490784,None,1185.5689301490784,None,1,True,306.8959712982178,755.657434463501,right,1188.540960073471,None,-1,-1,pp_18,icub,clamp,2021_Dec_24_1018,exp,2021.2.3,59.968916791652426,
left,stop,2,0,2,0,11,0,66,2,1189.0729990005493,None,1,0.5726220607757568,1189.0729990005493,None,1189.7410490512848,None,1190.7471961975098,1191.1019690036774,1190.7471961975098,1191.1019690036774,1189.7410490512848,None,1189.7410490512848,None,1189.7410490512848,None,1,True,505.1150321960449,-1.0,-1,1195.1340961456299,None,550,550,pp_18,icub,clamp,2021_Dec_24_1018,exp,2021.2.3,59.968916791652426,
left,go,2,0,2,0,11,1,67,1,1195.6660661697388,None,1,0.8382580280303955,1195.6660661697388,None,1196.5878381729126,None,1197.5916981697083,1197.9495611190796,1197.5916981697083,1197.9495611190796,1196.5878381729126,None,1196.5878381729126,None,1196.5878381729126,None,1,True,512.4697685241699,745.2147006988525,left,1199.7344779968262,None,-1,-1,pp_18,icub,clamp,2021_Dec_24_1018,exp,2021.2.3,59.968916791652426,
left,stop,2,0,2,0,11,2,68,2,1200.2486910820007,None,1,0.7259910106658936,1200.2486910820007,None,1201.0986070632935,None,1202.1083669662476,1202.4620051383972,1202.1083669662476,1202.4620051383972,1201.0986070632935,None,1201.0986070632935,None,1201.0986070632935,None,0,True,449.79000091552734,780.0123691558838,left,1204.2119209766388,None,600,550,pp_18,icub,clamp,2021_Dec_24_1018,exp,2021.2.3,59.968916791652426,
left,stop,2,0,2,0,11,3,69,2,1204.7359120845795,None,1,0.9674630165100098,1204.7359120845795,None,1205.8315541744232,None,1206.8250579833984,1207.1861221790314,1206.8250579833984,1207.1861221790314,1205.8315541744232,None,1205.8315541744232,None,1205.8315541744232,None,1,True,428.6966323852539,-1.0,-1,1211.1469821929932,None,550,550,pp_18,icub,clamp,2021_Dec_24_1018,exp,2021.2.3,59.968916791652426,
left,stop,2,0,2,0,11,4,70,2,1211.641977071762,None,1,0.6602170467376709,1211.641977071762,None,1212.4387311935425,None,1213.4170870780945,1213.7768630981445,1213.4170870780945,1213.7768630981445,1212.4387311935425,None,1212.4387311935425,None,1212.4387311935425,None,1,True,385.2264881134033,-1.0,-1,1217.6938891410828,None,600,550,pp_18,icub,clamp,2021_Dec_24_1018,exp,2021.2.3,59.968916791652426,
right,go,2,0,2,0,11,5,71,4,1218.2255280017853,None,1,0.6026051044464111,1218.2255280017853,None,1218.9611430168152,None,1219.9476799964905,1220.2980411052704,1219.9476799964905,1220.2980411052704,1218.9611430168152,None,1218.9611430168152,None,1218.9611430168152,None,1,True,560.6794357299805,855.2448749542236,right,1222.2693390846252,None,-1,-1,pp_18,icub,clamp,2021_Dec_24_1018,exp,2021.2.3,59.968916791652426,
right,stop,2,0,2,0,12,0,72,5,1222.7862780094147,None,1,0.6804859638214111,1222.7862780094147,None,1223.575590133667,None,1224.5864729881287,1224.9463741779327,1224.5864729881287,1224.9463741779327,1223.575590133667,None,1223.575590133667,None,1223.575590133667,None,0,True,421.1127758026123,771.5749740600586,right,1226.670511007309,None,650,550,pp_18,icub,clamp,2021_Dec_24_1018,exp,2021.2.3,59.968916791652426,
right,stop,2,0,2,0,12,1,73,5,1227.1811821460724,None,1,1.086333990097046,1227.1811821460724,None,1228.4004611968994,None,1229.4080200195312,1229.7675549983978,1229.4080200195312,1229.7675549983978,1228.4004611968994,None,1228.4004611968994,None,1228.4004611968994,None,1,True,516.0508155822754,-1.0,-1,1233.8156731128693,None,650,500,pp_18,icub,clamp,2021_Dec_24_1018,exp,2021.2.3,59.968916791652426,
right,go,2,0,2,0,12,2,74,3,1234.3091390132904,None,1,0.5328419208526611,1234.3091390132904,None,1234.9214510917664,None,1235.90057015419,1236.2500801086426,1235.90057015419,1236.2500801086426,1234.9214510917664,None,1234.9214510917664,None,1234.9214510917664,None,1,True,464.76197242736816,1068.540096282959,right,1238.3463380336761,None,-1,-1,pp_18,icub,clamp,2021_Dec_24_1018,exp,2021.2.3,59.968916791652426,
right,stop,2,0,2,0,12,3,75,5,1238.850485086441,None,1,0.7858750820159912,1238.850485086441,None,1239.7643899917603,None,1240.7982170581818,1241.1620080471039,1240.7982170581818,1241.1620080471039,1239.7643899917603,None,1239.7643899917603,None,1239.7643899917603,None,1,True,341.280460357666,-1.0,-1,1244.9834151268005,None,650,550,pp_18,icub,clamp,2021_Dec_24_1018,exp,2021.2.3,59.968916791652426,
left,go,2,0,2,0,12,4,76,1,1245.5149760246277,None,1,0.6386849880218506,1245.5149760246277,None,1246.2505400180817,None,1247.2262170314789,1247.5796411037445,1247.2262170314789,1247.5796411037445,1246.2505400180817,None,1246.2505400180817,None,1246.2505400180817,None,1,True,464.09106254577637,984.8678112030029,left,1249.6018719673157,None,-1,-1,pp_18,icub,clamp,2021_Dec_24_1018,exp,2021.2.3,59.968916791652426,
right,go,2,0,2,0,12,5,77,4,1250.1070251464844,None,1,0.7695260047912598,1250.1070251464844,None,1250.9621880054474,None,1251.9839091300964,1252.3421940803528,1251.9839091300964,1252.3421940803528,1250.9621880054474,None,1250.9621880054474,None,1250.9621880054474,None,1,True,324.8775005340576,825.2642154693604,right,1254.0152640342712,None,-1,-1,pp_18,icub,clamp,2021_Dec_24_1018,exp,2021.2.3,59.968916791652426,
right,go,3,0,3,0,0,0,0,3,1268.6518750190735,None,1,4.901950836181641,1268.6518750190735,None,1273.63920712471,None,1274.6302461624146,1274.9816851615906,1274.6302461624146,1274.9816851615906,1273.63920712471,None,1273.63920712471,None,1273.63920712471,None,1,True,396.90399169921875,731.6098213195801,right,1276.6792471408844,None,-1,-1,pp_18,icub,clamp,2021_Dec_24_1018,exp,2021.2.3,59.968916791652426,
left,go,3,0,3,0,0,1,1,1,1277.186201095581,None,1,0.5781469345092773,1277.186201095581,None,1277.8545191287994,None,1278.8574130535126,1279.2073390483856,1278.8574130535126,1279.2073390483856,1277.8545191287994,None,1277.8545191287994,None,1277.8545191287994,None,1,True,338.57178688049316,692.6567554473877,left,1280.7710711956024,None,-1,-1,pp_18,icub,clamp,2021_Dec_24_1018,exp,2021.2.3,59.968916791652426,
left,go,3,0,3,0,0,2,2,0,1281.2747161388397,None,1,0.48961710929870605,1281.2747161388397,None,1281.8768870830536,None,1282.8730101585388,1283.2346510887146,1282.8730101585388,1283.2346510887146,1281.8768870830536,None,1281.8768870830536,None,1281.8768870830536,None,1,True,331.0432434082031,778.2669067382812,left,1284.8752381801605,None,-1,-1,pp_18,icub,clamp,2021_Dec_24_1018,exp,2021.2.3,59.968916791652426,
left,stop,3,0,3,0,0,3,3,2,1285.393315076828,None,1,0.4510378837585449,1285.393315076828,None,1285.9346590042114,None,1286.9492139816284,1287.3035249710083,1286.9492139816284,1287.3035249710083,1285.9346590042114,None,1285.9346590042114,None,1285.9346590042114,None,0,True,319.0641403198242,714.9529457092285,left,1288.8731911182404,None,650,600,pp_18,icub,clamp,2021_Dec_24_1018,exp,2021.2.3,59.968916791652426,
right,go,3,0,3,0,0,4,4,4,1289.403323173523,None,1,0.8248860836029053,1289.403323173523,None,1290.318871974945,None,1291.3227891921997,1291.6677701473236,1291.3227891921997,1291.6677701473236,1290.318871974945,None,1290.318871974945,None,1290.318871974945,None,1,True,471.0347652435303,742.6567077636719,right,1293.414234161377,None,-1,-1,pp_18,icub,clamp,2021_Dec_24_1018,exp,2021.2.3,59.968916791652426,
left,go,3,0,3,0,0,5,5,1,1293.9233181476593,None,1,0.43000006675720215,1293.9233181476593,None,1294.4638640880585,None,1295.4656300544739,1295.828096151352,1295.4656300544739,1295.828096151352,1294.4638640880585,None,1294.4638640880585,None,1294.4638640880585,None,1,True,246.17886543273926,730.5665016174316,left,1297.3378310203552,None,-1,-1,pp_18,icub,clamp,2021_Dec_24_1018,exp,2021.2.3,59.968916791652426,
right,go,3,0,3,0,1,0,6,3,1297.8544561862946,None,1,0.48475098609924316,1297.8544561862946,None,1298.458535194397,None,1299.4661149978638,1299.819529056549,1299.4661149978638,1299.819529056549,1298.458535194397,None,1298.458535194397,None,1298.458535194397,None,1,True,250.00762939453125,793.4448719024658,right,1301.3894710540771,None,-1,-1,pp_18,icub,clamp,2021_Dec_24_1018,exp,2021.2.3,59.968916791652426,
right,go,3,0,3,0,1,1,7,3,1301.9079160690308,None,1,0.48322200775146484,1301.9079160690308,None,1302.5104131698608,None,1303.5419371128082,1303.8892800807953,1303.5419371128082,1303.8892800807953,1302.5104131698608,None,1302.5104131698608,None,1302.5104131698608,None,1,True,156.20732307434082,791.5959358215332,right,1305.3650541305542,None,-1,-1,pp_18,icub,clamp,2021_Dec_24_1018,exp,2021.2.3,59.968916791652426,
right,stop,3,0,3,0,1,2,8,5,1305.8668901920319,None,1,0.4821631908416748,1305.8668901920319,None,1306.46639418602,None,1307.4932491779327,1307.8349871635437,1307.4932491779327,1307.8349871635437,1306.46639418602,None,1306.46639418602,None,1306.46639418602,None,0,True,170.25470733642578,755.7957172393799,right,1309.2808079719543,None,600,600,pp_18,icub,clamp,2021_Dec_24_1018,exp,2021.2.3,59.968916791652426,
right,go,3,0,3,0,1,3,9,3,1309.8027110099792,None,1,0.6435868740081787,1309.8027110099792,None,1310.5750069618225,None,1311.6013460159302,1311.9629051685333,1311.6013460159302,1311.9629051685333,1310.5750069618225,None,1310.5750069618225,None,1310.5750069618225,None,1,True,354.0334701538086,799.1173267364502,right,1313.6419739723206,None,-1,-1,pp_18,icub,clamp,2021_Dec_24_1018,exp,2021.2.3,59.968916791652426,
left,go,3,0,3,0,1,4,10,1,1314.1549620628357,None,1,0.5864570140838623,1314.1549620628357,None,1314.821702003479,None,1315.83193898201,1316.172835111618,1315.83193898201,1316.172835111618,1314.821702003479,None,1314.821702003479,None,1314.821702003479,None,1,True,291.6066646575928,813.880443572998,left,1317.7990040779114,None,-1,-1,pp_18,icub,clamp,2021_Dec_24_1018,exp,2021.2.3,59.968916791652426,
left,stop,3,0,3,0,1,5,11,2,1318.3199400901794,None,1,0.5789909362792969,1318.3199400901794,None,1318.9895181655884,None,1320.0017411708832,1320.352343082428,1320.0017411708832,1320.352343082428,1318.9895181655884,None,1318.9895181655884,None,1318.9895181655884,None,0,True,291.6295528411865,751.9545555114746,left,1321.9308071136475,None,600,550,pp_18,icub,clamp,2021_Dec_24_1018,exp,2021.2.3,59.968916791652426,
