Holder,Action,blocks.thisRepN,blocks.thisTrialN,blocks.thisN,blocks.thisIndex,trials.thisRepN,trials.thisTrialN,trials.thisN,trials.thisIndex,start_msg.started,start_msg.stopped,RespButton_start_trial.keys,RespButton_start_trial.rt,RespButton_start_trial.started,RespButton_start_trial.stopped,GREEN.started,GREEN.stopped,LEFT_RED.started,LEFT_RED.stopped,RIGHT_RED.started,RIGHT_RED.stopped,LEFT_CIRCLE.started,LEFT_CIRCLE.stopped,CENTER_CIRCLE.started,CENTER_CIRCLE.stopped,RIGHT_CIRCLE.started,RIGHT_CIRCLE.stopped,CORRECT,VALIDITY,RELEASE_TIME,TOUCH_TIME,BOTTLE_RESPONSE_POSITION,text.started,text.stopped,SOUND_DELAY_MS_LEFT,SOUND_DELAY_MS_RIGHT,pid,left_position,right_position,date,expName,psychopyVersion,frameRate,
left,stop,0,0,0,0,0,0,0,2,55.19703698158264,None,1,6.51006007194519,55.19703698158264,None,61.79372191429138,None,62.81573295593262,63.187593936920166,62.81573295593262,63.187593936920166,61.79372191429138,None,61.79372191429138,None,61.79372191429138,None,0,False,-1.0,-1.0,-1,63.64191794395447,None,,,pp_13,icub,clamp,2021_Dec_23_1124,exp,2021.2.3,60.05031032335192,
right,go,0,0,0,0,0,1,1,4,64.12984108924866,None,1,1.1239609718322754,64.12984108924866,None,65.36889100074768,None,66.37456393241882,66.71431303024292,66.37456393241882,66.71431303024292,65.36889100074768,None,65.36889100074768,None,65.36889100074768,None,1,True,393.9650058746338,410.7999801635742,right,68.05756497383118,None,-1,-1,pp_13,icub,clamp,2021_Dec_23_1124,exp,2021.2.3,60.05031032335192,
right,go,0,0,0,0,0,2,2,4,68.56334209442139,None,1,0.45084285736083984,68.56334209442139,None,69.10471606254578,None,70.13000011444092,70.48659706115723,70.13000011444092,70.48659706115723,69.10471606254578,None,69.10471606254578,None,69.10471606254578,None,1,True,291.83292388916016,350.09145736694336,right,71.6429169178009,None,-1,-1,pp_13,icub,clamp,2021_Dec_23_1124,exp,2021.2.3,60.05031032335192,
left,go,0,0,0,0,0,3,3,0,72.14939212799072,None,1,0.11496877670288086,72.14939212799072,None,72.38402009010315,None,73.38822197914124,73.74343204498291,73.38822197914124,73.74343204498291,72.38402009010315,None,72.38402009010315,None,72.38402009010315,None,1,True,305.36866188049316,349.84302520751953,left,74.92464995384216,None,-1,-1,pp_13,icub,clamp,2021_Dec_23_1124,exp,2021.2.3,60.05031032335192,
right,stop,0,0,0,0,0,4,4,5,75.43067193031311,None,1,0.29922008514404297,75.43067193031311,None,75.85032606124878,None,76.86389303207397,77.18498611450195,76.86389303207397,77.18498611450195,75.85032606124878,None,75.85032606124878,None,75.85032606124878,None,0,False,-1.0,-1.0,-1,77.72294306755066,None,,,pp_13,icub,clamp,2021_Dec_23_1124,exp,2021.2.3,60.05031032335192,
left,go,0,0,0,0,0,5,5,1,78.23074102401733,None,1,0.3971571922302246,78.23074102401733,None,78.74605798721313,None,79.74757790565491,80.09389400482178,79.74757790565491,80.09389400482178,78.74605798721313,None,78.74605798721313,None,78.74605798721313,None,1,True,320.9490776062012,316.7529106140137,left,81.26595211029053,None,-1,-1,pp_13,icub,clamp,2021_Dec_23_1124,exp,2021.2.3,60.05031032335192,
right,stop,0,0,0,0,1,0,6,5,81.76876091957092,None,1,0.09872317314147949,81.76876091957092,None,81.99556493759155,None,83.02859210968018,83.38362193107605,83.02859210968018,83.38362193107605,81.99556493759155,None,81.99556493759155,None,81.99556493759155,None,0,True,444.40174102783203,366.4546012878418,right,84.71725702285767,None,500,500,pp_13,icub,clamp,2021_Dec_23_1124,exp,2021.2.3,60.05031032335192,
right,go,0,0,0,0,1,1,7,3,85.23476099967957,None,1,0.12765002250671387,85.23476099967957,None,85.46820712089539,None,86.48267102241516,86.84567904472351,86.48267102241516,86.84567904472351,85.46820712089539,None,85.46820712089539,None,85.46820712089539,None,1,True,291.69178009033203,323.9319324493408,right,87.98200011253357,None,-1,-1,pp_13,icub,clamp,2021_Dec_23_1124,exp,2021.2.3,60.05031032335192,
left,go,0,0,0,0,1,2,8,0,88.50313210487366,None,1,0.027971982955932617,88.50313210487366,None,88.6115391254425,None,89.60414910316467,89.93026399612427,89.60414910316467,89.93026399612427,88.6115391254425,None,88.6115391254425,None,88.6115391254425,None,1,True,347.8810787200928,298.2745170593262,left,91.1417019367218,None,-1,-1,pp_13,icub,clamp,2021_Dec_23_1124,exp,2021.2.3,60.05031032335192,
right,stop,0,0,0,0,1,3,9,5,91.6421480178833,None,1,0.16112303733825684,91.6421480178833,None,91.93609189987183,None,92.96167707443237,93.31497192382812,92.96167707443237,93.31497192382812,91.93609189987183,None,91.93609189987183,None,91.93609189987183,None,0,True,1751.3370513916016,547.0006465911865,right,96.14291310310364,None,500,450,pp_13,icub,clamp,2021_Dec_23_1124,exp,2021.2.3,60.05031032335192,
left,go,0,0,0,0,1,4,10,0,96.66292905807495,None,1,0.23471903800964355,96.66292905807495,None,97.01790690422058,None,98.03878712654114,98.40029907226562,98.03878712654114,98.40029907226562,97.01790690422058,None,97.01790690422058,None,97.01790690422058,None,1,True,64.92090225219727,388.9424800872803,left,99.38867497444153,None,-1,-1,pp_13,icub,clamp,2021_Dec_23_1124,exp,2021.2.3,60.05031032335192,
right,go,0,0,0,0,1,5,11,3,99.90201306343079,None,1,0.39762306213378906,99.90201306343079,None,100.38467597961426,None,101.41411399841309,101.77086806297302,101.41411399841309,101.77086806297302,100.38467597961426,None,100.38467597961426,None,100.38467597961426,None,1,True,354.2611598968506,385.9384059906006,right,102.99909400939941,None,-1,-1,pp_13,icub,clamp,2021_Dec_23_1124,exp,2021.2.3,60.05031032335192,
left,go,0,0,0,0,2,0,12,1,103.50847101211548,None,1,0.23012804985046387,103.50847101211548,None,103.86232590675354,None,104.8947389125824,105.25410008430481,104.8947389125824,105.25410008430481,103.86232590675354,None,103.86232590675354,None,103.86232590675354,None,1,True,178.44128608703613,313.5805130004883,left,106.22789812088013,None,-1,-1,pp_13,icub,clamp,2021_Dec_23_1124,exp,2021.2.3,60.05031032335192,
left,go,0,0,0,0,2,1,13,1,106.74760508537292,None,1,0.2572641372680664,106.74760508537292,None,107.10026693344116,None,108.10503506660461,108.45851111412048,108.10503506660461,108.45851111412048,107.10026693344116,None,107.10026693344116,None,107.10026693344116,None,0,False,2502.647876739502,-1.0,-1,114.50335907936096,None,-1,-1,pp_13,icub,clamp,2021_Dec_23_1124,exp,2021.2.3,60.05031032335192,
left,stop,0,0,0,0,2,2,14,2,114.995845079422,None,1,0.8966341018676758,114.995845079422,None,115.97809290885925,None,116.95856499671936,117.3204460144043,116.95856499671936,117.3204460144043,115.97809290885925,None,115.97809290885925,None,115.97809290885925,None,0,True,28.542280197143555,454.9868106842041,left,118.3351321220398,None,500,400,pp_13,icub,clamp,2021_Dec_23_1124,exp,2021.2.3,60.05031032335192,
left,stop,0,0,0,0,2,3,15,2,118.85161590576172,None,1,0.25147390365600586,118.85161590576172,None,119.20919704437256,None,120.20887804031372,120.56898307800293,120.20887804031372,120.56898307800293,119.20919704437256,None,119.20919704437256,None,119.20919704437256,None,0,True,297.5301742553711,394.94991302490234,left,121.79234910011292,None,450,400,pp_13,icub,clamp,2021_Dec_23_1124,exp,2021.2.3,60.05031032335192,
left,stop,0,0,0,0,2,4,16,2,122.30958604812622,None,1,0.4793550968170166,122.30958604812622,None,122.91246199607849,None,123.91828608512878,124.24475812911987,123.91828608512878,124.24475812911987,122.91246199607849,None,122.91246199607849,None,122.91246199607849,None,0,True,331.0046195983887,352.81944274902344,left,125.49917101860046,None,400,400,pp_13,icub,clamp,2021_Dec_23_1124,exp,2021.2.3,60.05031032335192,
right,go,0,0,0,0,2,5,17,3,126.01267600059509,None,1,0.7922980785369873,126.01267600059509,None,126.92285490036011,None,127.93950295448303,128.29764604568481,127.93950295448303,128.29764604568481,126.92285490036011,None,126.92285490036011,None,126.92285490036011,None,0,False,-1.0,-1.0,-1,128.73976802825928,None,,,pp_13,icub,clamp,2021_Dec_23_1124,exp,2021.2.3,60.05031032335192,
right,go,0,0,0,0,3,0,18,4,129.24803495407104,None,1,0.8960909843444824,129.24803495407104,None,130.2242670059204,None,131.23059105873108,131.5876579284668,131.23059105873108,131.5876579284668,130.2242670059204,None,130.2242670059204,None,130.2242670059204,None,1,True,863.8715744018555,386.2948417663574,right,133.36283206939697,None,-1,-1,pp_13,icub,clamp,2021_Dec_23_1124,exp,2021.2.3,60.05031032335192,
left,stop,0,0,0,0,3,1,19,2,133.8769989013672,None,1,0.20912694931030273,133.8769989013672,None,134.1717619895935,None,135.19281005859375,135.55685091018677,135.19281005859375,135.55685091018677,134.1717619895935,None,134.1717619895935,None,134.1717619895935,None,0,True,132.3533058166504,344.99406814575195,left,136.5275650024414,None,350,400,pp_13,icub,clamp,2021_Dec_23_1124,exp,2021.2.3,60.05031032335192,
right,stop,0,0,0,0,3,2,20,5,137.05710291862488,None,1,0.1929318904876709,137.05710291862488,None,137.35027194023132,None,138.3757300376892,138.73684096336365,138.3757300376892,138.73684096336365,137.35027194023132,None,137.35027194023132,None,137.35027194023132,None,0,True,188.14921379089355,319.1101551055908,right,139.76946902275085,None,300,400,pp_13,icub,clamp,2021_Dec_23_1124,exp,2021.2.3,60.05031032335192,
left,go,0,0,0,0,3,3,21,0,140.27570390701294,None,1,0.08871603012084961,140.27570390701294,None,140.44802808761597,None,141.47132992744446,141.8195550441742,141.47132992744446,141.8195550441742,140.44802808761597,None,140.44802808761597,None,140.44802808761597,None,1,True,249.47667121887207,333.9531421661377,left,142.9349811077118,None,-1,-1,pp_13,icub,clamp,2021_Dec_23_1124,exp,2021.2.3,60.05031032335192,
left,go,0,0,0,0,3,4,22,1,143.46202206611633,None,1,0.43118810653686523,143.46202206611633,None,144.00253891944885,None,144.99838709831238,145.34734511375427,144.99838709831238,145.34734511375427,144.00253891944885,None,144.00253891944885,None,144.00253891944885,None,0,False,-1.0,-1.0,-1,145.88043689727783,None,,,pp_13,icub,clamp,2021_Dec_23_1124,exp,2021.2.3,60.05031032335192,
right,go,0,0,0,0,3,5,23,4,146.39471197128296,None,1,0.5849258899688721,146.39471197128296,None,147.06012892723083,None,148.06012606620789,148.41673707962036,148.06012606620789,148.41673707962036,147.06012892723083,None,147.06012892723083,None,147.06012892723083,None,1,True,287.8744602203369,349.46441650390625,right,149.60944390296936,None,-1,-1,pp_13,icub,clamp,2021_Dec_23_1124,exp,2021.2.3,60.05031032335192,
left,stop,0,0,0,0,4,0,24,2,150.11668491363525,None,1,0.12989497184753418,150.11668491363525,None,150.35262513160706,None,151.36743903160095,151.71624898910522,151.36743903160095,151.71624898910522,150.35262513160706,None,150.35262513160706,None,150.35262513160706,None,0,True,301.98049545288086,320.6028938293457,left,152.86790990829468,None,300,350,pp_13,icub,clamp,2021_Dec_23_1124,exp,2021.2.3,60.05031032335192,
right,stop,0,0,0,0,4,1,25,5,153.38756799697876,None,1,0.13797998428344727,153.38756799697876,None,153.61875104904175,None,154.61808490753174,154.97421312332153,154.61808490753174,154.97421312332153,153.61875104904175,None,153.61875104904175,None,153.61875104904175,None,0,True,142.60196685791016,363.56306076049805,right,156.02198004722595,None,250,350,pp_13,icub,clamp,2021_Dec_23_1124,exp,2021.2.3,60.05031032335192,
left,go,0,0,0,0,4,2,26,1,156.52472305297852,None,1,0.032536983489990234,156.52472305297852,None,156.63761806488037,None,157.64404797554016,157.99235796928406,157.64404797554016,157.99235796928406,156.63761806488037,None,156.63761806488037,None,156.63761806488037,None,1,True,259.36365127563477,336.31277084350586,left,159.1173939704895,None,-1,-1,pp_13,icub,clamp,2021_Dec_23_1124,exp,2021.2.3,60.05031032335192,
right,stop,0,0,0,0,4,3,27,5,159.61789798736572,None,1,0.27135181427001953,159.61789798736572,None,159.97489309310913,None,160.9690980911255,161.32098293304443,160.9690980911255,161.32098293304443,159.97489309310913,None,159.97489309310913,None,159.97489309310913,None,0,True,199.2056369781494,294.7204113006592,right,162.35107612609863,None,250,300,pp_13,icub,clamp,2021_Dec_23_1124,exp,2021.2.3,60.05031032335192,
right,go,0,0,0,0,4,4,28,3,162.85579895973206,None,1,0.031922101974487305,162.85579895973206,None,162.96812510490417,None,163.99033999443054,164.33685207366943,163.99033999443054,164.33685207366943,162.96812510490417,None,162.96812510490417,None,162.96812510490417,None,1,True,385.164737701416,344.09046173095703,right,165.5873830318451,None,-1,-1,pp_13,icub,clamp,2021_Dec_23_1124,exp,2021.2.3,60.05031032335192,
left,go,0,0,0,0,4,5,29,1,166.08822798728943,None,1,0.0596010684967041,166.08822798728943,None,166.25849390029907,None,167.25070905685425,167.59162402153015,167.25070905685425,167.59162402153015,166.25849390029907,None,166.25849390029907,None,166.25849390029907,None,1,True,326.5092372894287,362.0145320892334,left,168.85140800476074,None,-1,-1,pp_13,icub,clamp,2021_Dec_23_1124,exp,2021.2.3,60.05031032335192,
left,stop,0,0,0,0,5,0,30,2,169.3530900478363,None,1,0.1986091136932373,169.3530900478363,None,169.65225911140442,None,170.67128205299377,171.0183699131012,170.67128205299377,171.0183699131012,169.65225911140442,None,169.65225911140442,None,169.65225911140442,None,0,True,287.27197647094727,367.8772449493408,left,172.19662594795227,None,250,250,pp_13,icub,clamp,2021_Dec_23_1124,exp,2021.2.3,60.05031032335192,
left,stop,0,0,0,0,5,1,31,2,172.71667790412903,None,1,0.21110892295837402,172.71667790412903,None,173.0132191181183,None,174.01984310150146,174.38728308677673,174.01984310150146,174.38728308677673,173.0132191181183,None,173.0132191181183,None,173.0132191181183,None,0,True,229.9935817718506,381.2904357910156,left,175.53127002716064,None,200,250,pp_13,icub,clamp,2021_Dec_23_1124,exp,2021.2.3,60.05031032335192,
right,go,0,0,0,0,5,2,32,3,176.03411102294922,None,1,0.11682009696960449,176.03411102294922,None,176.2643461227417,None,177.29454112052917,177.64252996444702,177.29454112052917,177.64252996444702,176.2643461227417,None,176.2643461227417,None,176.2643461227417,None,1,True,272.3085880279541,322.7581977844238,right,178.7711009979248,None,-1,-1,pp_13,icub,clamp,2021_Dec_23_1124,exp,2021.2.3,60.05031032335192,
left,go,0,0,0,0,5,3,33,0,179.27016305923462,None,1,0.18874692916870117,179.27016305923462,None,179.56588292121887,None,180.565495967865,180.91554999351501,180.565495967865,180.91554999351501,179.56588292121887,None,179.56588292121887,None,179.56588292121887,None,0,False,264.77622985839844,381.8480968475342,right,182.08821201324463,None,-1,-1,pp_13,icub,clamp,2021_Dec_23_1124,exp,2021.2.3,60.05031032335192,
left,stop,0,0,0,0,5,4,34,2,182.60802793502808,None,1,0.23493599891662598,182.60802793502808,None,182.96229791641235,None,183.97273993492126,184.33097195625305,183.97273993492126,184.33097195625305,182.96229791641235,None,182.96229791641235,None,182.96229791641235,None,0,True,63.90500068664551,356.2042713165283,left,185.27221989631653,None,150,250,pp_13,icub,clamp,2021_Dec_23_1124,exp,2021.2.3,60.05031032335192,
right,go,0,0,0,0,5,5,35,4,185.79908299446106,None,1,0.22385597229003906,185.79908299446106,None,186.1510410308838,None,187.15056991577148,187.49384713172913,187.15056991577148,187.49384713172913,186.1510410308838,None,186.1510410308838,None,186.1510410308838,None,1,True,238.93117904663086,286.99231147766113,right,188.5705931186676,None,-1,-1,pp_13,icub,clamp,2021_Dec_23_1124,exp,2021.2.3,60.05031032335192,
right,go,0,0,0,0,6,0,36,4,189.09463906288147,None,1,0.06491518020629883,189.09463906288147,None,189.26268410682678,None,190.25576496124268,190.60798001289368,190.25576496124268,190.60798001289368,189.26268410682678,None,189.26268410682678,None,189.26268410682678,None,1,True,305.295467376709,342.9865837097168,right,191.78963899612427,None,-1,-1,pp_13,icub,clamp,2021_Dec_23_1124,exp,2021.2.3,60.05031032335192,
right,go,0,0,0,0,6,1,37,4,192.29561591148376,None,1,0.011801004409790039,192.29561591148376,None,192.4009690284729,None,193.42495608329773,193.78900408744812,193.42495608329773,193.78900408744812,192.4009690284729,None,192.4009690284729,None,192.4009690284729,None,1,True,240.62275886535645,355.61251640319824,right,194.90275502204895,None,-1,-1,pp_13,icub,clamp,2021_Dec_23_1124,exp,2021.2.3,60.05031032335192,
left,stop,0,0,0,0,6,2,38,2,195.42301297187805,None,1,1.5309009552001953,195.42301297187805,None,197.06791400909424,None,198.0473530292511,198.40869402885437,198.0473530292511,198.40869402885437,197.06791400909424,None,197.06791400909424,None,197.06791400909424,None,0,True,281.12053871154785,348.64091873168945,left,199.57091903686523,None,100,250,pp_13,icub,clamp,2021_Dec_23_1124,exp,2021.2.3,60.05031032335192,
right,go,0,0,0,0,6,3,39,3,200.08611512184143,None,1,0.030286073684692383,200.08611512184143,None,200.19694209098816,None,201.19844698905945,201.56000995635986,201.19844698905945,201.56000995635986,200.19694209098816,None,200.19694209098816,None,200.19694209098816,None,1,True,44.420719146728516,259.4866752624512,right,202.39760494232178,None,-1,-1,pp_13,icub,clamp,2021_Dec_23_1124,exp,2021.2.3,60.05031032335192,
right,stop,0,0,0,0,6,4,40,5,202.9137020111084,None,1,0.030570030212402344,202.9137020111084,None,203.01965403556824,None,204.0177719593048,204.37264490127563,204.0177719593048,204.37264490127563,203.01965403556824,None,203.01965403556824,None,203.01965403556824,None,0,True,169.07477378845215,280.1060676574707,right,205.35888504981995,None,50,250,pp_13,icub,clamp,2021_Dec_23_1124,exp,2021.2.3,60.05031032335192,
left,go,0,0,0,0,6,5,41,1,205.85777592658997,None,1,0.3867640495300293,205.85777592658997,None,206.33040308952332,None,207.3421609401703,207.70210695266724,207.3421609401703,207.70210695266724,206.33040308952332,None,206.33040308952332,None,206.33040308952332,None,0,False,480.76725006103516,408.22887420654297,right,209.1142840385437,None,-1,-1,pp_13,icub,clamp,2021_Dec_23_1124,exp,2021.2.3,60.05031032335192,
right,go,0,0,0,0,7,0,42,3,209.6323959827423,None,1,0.2680821418762207,209.6323959827423,None,209.99038791656494,None,211.0220971107483,211.3736960887909,211.0220971107483,211.3736960887909,209.99038791656494,None,209.99038791656494,None,209.99038791656494,None,1,True,372.65825271606445,303.3416271209717,right,212.54101610183716,None,-1,-1,pp_13,icub,clamp,2021_Dec_23_1124,exp,2021.2.3,60.05031032335192,
right,go,0,0,0,0,7,1,43,3,213.04579997062683,None,1,0.28287482261657715,213.04579997062683,None,213.4040880203247,None,214.4238200187683,214.77085208892822,214.4238200187683,214.77085208892822,213.4040880203247,None,213.4040880203247,None,213.4040880203247,None,1,True,28.752803802490234,289.320707321167,right,215.62480306625366,None,-1,-1,pp_13,icub,clamp,2021_Dec_23_1124,exp,2021.2.3,60.05031032335192,
right,stop,0,0,0,0,7,2,44,5,216.14478302001953,None,1,1.3967249393463135,216.14478302001953,None,217.6121039390564,None,218.61908102035522,218.9801640510559,218.61908102035522,218.9801640510559,217.6121039390564,None,217.6121039390564,None,217.6121039390564,None,0,True,57.16729164123535,315.8254623413086,right,219.87898302078247,None,50,200,pp_13,icub,clamp,2021_Dec_23_1124,exp,2021.2.3,60.05031032335192,
left,go,0,0,0,0,7,3,45,0,220.39725303649902,None,1,0.15951991081237793,220.39725303649902,None,220.68969297409058,None,221.70913195610046,222.06485390663147,221.70913195610046,222.06485390663147,220.68969297409058,None,220.68969297409058,None,220.68969297409058,None,0,False,-1.0,-1.0,-1,222.5619010925293,None,,,pp_13,icub,clamp,2021_Dec_23_1124,exp,2021.2.3,60.05031032335192,
left,go,0,0,0,0,7,4,46,0,223.06952595710754,None,1,0.6482350826263428,223.06952595710754,None,223.84594798088074,None,224.87261509895325,225.2232699394226,224.87261509895325,225.2232699394226,223.84594798088074,None,223.84594798088074,None,223.84594798088074,None,1,True,318.575382232666,328.596830368042,left,226.40235209465027,None,-1,-1,pp_13,icub,clamp,2021_Dec_23_1124,exp,2021.2.3,60.05031032335192,
left,go,0,0,0,0,7,5,47,0,226.9143979549408,None,1,0.2890338897705078,226.9143979549408,None,227.32607197761536,None,228.33451199531555,228.6898970603943,228.33451199531555,228.6898970603943,227.32607197761536,None,227.32607197761536,None,227.32607197761536,None,0,False,3000.934362411499,-1.0,-1,232.2240970134735,None,,,pp_13,icub,clamp,2021_Dec_23_1124,exp,2021.2.3,60.05031032335192,
right,go,0,0,0,0,8,0,48,4,232.7182490825653,None,1,0.5625529289245605,232.7182490825653,None,233.3871579170227,None,234.42199206352234,234.74967408180237,234.42199206352234,234.74967408180237,233.3871579170227,None,233.3871579170227,None,233.3871579170227,None,1,True,70.81246376037598,356.8694591522217,right,235.71223711967468,None,-1,-1,pp_13,icub,clamp,2021_Dec_23_1124,exp,2021.2.3,60.05031032335192,
left,stop,0,0,0,0,8,1,49,2,236.21940302848816,None,1,0.2890458106994629,236.21940302848816,None,236.63589811325073,None,237.64972496032715,237.99838495254517,237.64972496032715,237.99838495254517,236.63589811325073,None,236.63589811325073,None,236.63589811325073,None,0,False,3000.1134872436523,-1.0,-1,241.53281092643738,None,,,pp_13,icub,clamp,2021_Dec_23_1124,exp,2021.2.3,60.05031032335192,
left,go,0,0,0,0,8,2,50,1,242.0257511138916,None,1,0.4488530158996582,242.0257511138916,None,242.56967210769653,None,243.58741998672485,243.9156210422516,243.58741998672485,243.9156210422516,242.56967210769653,None,242.56967210769653,None,242.56967210769653,None,0,False,3000.0174045562744,-1.0,-1,247.44440293312073,None,,,pp_13,icub,clamp,2021_Dec_23_1124,exp,2021.2.3,60.05031032335192,
left,go,0,0,0,0,8,3,51,1,247.9756109714508,None,1,2.5359551906585693,247.9756109714508,None,250.61805295944214,None,251.62368297576904,251.94954204559326,251.62368297576904,251.94954204559326,250.61805295944214,None,250.61805295944214,None,250.61805295944214,None,1,True,273.7233638763428,311.94043159484863,left,253.11334705352783,None,-1,-1,pp_13,icub,clamp,2021_Dec_23_1124,exp,2021.2.3,60.05031032335192,
right,go,0,0,0,0,8,4,52,3,253.63213300704956,None,1,0.7760460376739502,253.63213300704956,None,254.4837200641632,None,255.51300501823425,255.86686396598816,255.51300501823425,255.86686396598816,254.4837200641632,None,254.4837200641632,None,254.4837200641632,None,1,True,61.975717544555664,317.59047508239746,right,256.73298501968384,None,-1,-1,pp_13,icub,clamp,2021_Dec_23_1124,exp,2021.2.3,60.05031032335192,
right,stop,0,0,0,0,8,5,53,5,257.2690830230713,None,1,1.2443599700927734,257.2690830230713,None,258.61377811431885,None,259.6329529285431,259.99619007110596,259.6329529285431,259.99619007110596,258.61377811431885,None,258.61377811431885,None,258.61377811431885,None,0,True,236.4046573638916,256.35409355163574,right,260.9819951057434,None,50,150,pp_13,icub,clamp,2021_Dec_23_1124,exp,2021.2.3,60.05031032335192,
left,go,0,0,0,0,9,0,54,1,261.4807069301605,None,1,0.2859630584716797,261.4807069301605,None,261.8999149799347,None,262.91465306282043,263.26718401908875,262.91465306282043,263.26718401908875,261.8999149799347,None,261.8999149799347,None,261.8999149799347,None,0,False,-1.0,-1.0,-1,263.60355591773987,None,,,pp_13,icub,clamp,2021_Dec_23_1124,exp,2021.2.3,60.05031032335192,
right,stop,0,0,0,0,9,1,55,5,264.1154799461365,None,1,0.6721749305725098,264.1154799461365,None,264.90218710899353,None,265.90530490875244,266.2565960884094,265.90530490875244,266.2565960884094,264.90218710899353,None,264.90218710899353,None,264.90218710899353,None,0,True,118.74771118164062,297.879695892334,right,267.19674801826477,None,50,100,pp_13,icub,clamp,2021_Dec_23_1124,exp,2021.2.3,60.05031032335192,
right,go,0,0,0,0,9,2,56,4,267.7022159099579,None,1,0.2904489040374756,267.7022159099579,None,268.1206479072571,None,269.1321470737457,269.4833219051361,269.1321470737457,269.4833219051361,268.1206479072571,None,268.1206479072571,None,268.1206479072571,None,1,True,262.36557960510254,249.07541275024414,right,270.5302278995514,None,-1,-1,pp_13,icub,clamp,2021_Dec_23_1124,exp,2021.2.3,60.05031032335192,
right,go,0,0,0,0,9,3,57,3,271.0325150489807,None,1,0.29861998558044434,271.0325150489807,None,271.4508430957794,None,272.4712860584259,272.8407790660858,272.4712860584259,272.8407790660858,271.4508430957794,None,271.4508430957794,None,271.4508430957794,None,1,True,220.3211784362793,301.42974853515625,right,273.85434103012085,None,-1,-1,pp_13,icub,clamp,2021_Dec_23_1124,exp,2021.2.3,60.05031032335192,
right,stop,0,0,0,0,9,4,58,5,274.3758718967438,None,1,0.292618989944458,274.3758718967438,None,274.79191303253174,None,275.8058340549469,276.16475200653076,275.8058340549469,276.16475200653076,274.79191303253174,None,274.79191303253174,None,274.79191303253174,None,0,True,324.9549865722656,355.4866313934326,right,277.37917304039,None,50,50,pp_13,icub,clamp,2021_Dec_23_1124,exp,2021.2.3,60.05031032335192,
right,stop,0,0,0,0,9,5,59,5,277.8896310329437,None,1,0.11703705787658691,277.8896310329437,None,278.12036395072937,None,279.13170289993286,279.48614501953125,279.13170289993286,279.48614501953125,278.12036395072937,None,278.12036395072937,None,278.12036395072937,None,0,True,201.446533203125,206.48622512817383,right,280.417151927948,None,50,0,pp_13,icub,clamp,2021_Dec_23_1124,exp,2021.2.3,60.05031032335192,
right,go,0,0,0,0,10,0,60,4,280.92516803741455,None,1,0.13169097900390625,280.92516803741455,None,281.15586709976196,None,282.1667490005493,282.5088849067688,282.1667490005493,282.5088849067688,281.15586709976196,None,281.15586709976196,None,281.15586709976196,None,1,True,263.0295753479004,319.9903964996338,right,283.64652395248413,None,-1,-1,pp_13,icub,clamp,2021_Dec_23_1124,exp,2021.2.3,60.05031032335192,
right,go,0,0,0,0,10,1,61,3,284.1619710922241,None,1,0.3548929691314697,284.1619710922241,None,284.64092993736267,None,285.6598880290985,286.0042300224304,285.6598880290985,286.0042300224304,284.64092993736267,None,284.64092993736267,None,284.64092993736267,None,1,True,51.180124282836914,339.13516998291016,right,286.9227240085602,None,-1,-1,pp_13,icub,clamp,2021_Dec_23_1124,exp,2021.2.3,60.05031032335192,
left,go,0,0,0,0,10,2,62,0,287.44104290008545,None,1,0.0836188793182373,287.44104290008545,None,287.6052598953247,None,288.6177499294281,288.9707930088043,288.6177499294281,288.9707930088043,287.6052598953247,None,287.6052598953247,None,287.6052598953247,None,1,True,217.2677516937256,307.4460029602051,left,290.00058007240295,None,-1,-1,pp_13,icub,clamp,2021_Dec_23_1124,exp,2021.2.3,60.05031032335192,
left,go,0,0,0,0,10,3,63,1,290.50959396362305,None,1,0.4812769889831543,290.50959396362305,None,291.1144199371338,None,292.14244508743286,292.4893870353699,292.14244508743286,292.4893870353699,291.1144199371338,None,291.1144199371338,None,291.1144199371338,None,1,True,49.17287826538086,297.99604415893555,left,293.3525071144104,None,-1,-1,pp_13,icub,clamp,2021_Dec_23_1124,exp,2021.2.3,60.05031032335192,
right,go,0,0,0,0,10,4,64,4,293.8692240715027,None,1,0.30475616455078125,293.8692240715027,None,294.26420307159424,None,295.29214000701904,295.6424169540405,295.29214000701904,295.6424169540405,294.26420307159424,None,294.26420307159424,None,294.26420307159424,None,0,False,2491.826295852661,-1.0,-1,301.6594920158386,None,-1,-1,pp_13,icub,clamp,2021_Dec_23_1124,exp,2021.2.3,60.05031032335192,
left,go,0,0,0,0,10,5,65,1,302.15260100364685,None,1,0.7062668800354004,302.15260100364685,None,302.94895100593567,None,303.92825198173523,304.29133701324463,303.92825198173523,304.29133701324463,302.94895100593567,None,302.94895100593567,None,302.94895100593567,None,1,True,181.8068027496338,351.0146141052246,left,305.35458993911743,None,-1,-1,pp_13,icub,clamp,2021_Dec_23_1124,exp,2021.2.3,60.05031032335192,
left,go,0,0,0,0,11,0,66,1,305.85042810440063,None,1,0.32111191749572754,305.85042810440063,None,306.271852016449,None,307.29970598220825,307.6566960811615,307.29970598220825,307.6566960811615,306.271852016449,None,306.271852016449,None,306.271852016449,None,1,True,270.3816890716553,322.9482173919678,left,308.74158906936646,None,-1,-1,pp_13,icub,clamp,2021_Dec_23_1124,exp,2021.2.3,60.05031032335192,
left,go,0,0,0,0,11,1,67,0,309.27284002304077,None,1,0.37839293479919434,309.27284002304077,None,309.7517189979553,None,310.75733494758606,311.11684107780457,310.75733494758606,311.11684107780457,309.7517189979553,None,309.7517189979553,None,309.7517189979553,None,1,True,252.28023529052734,374.0253448486328,left,312.2856900691986,None,-1,-1,pp_13,icub,clamp,2021_Dec_23_1124,exp,2021.2.3,60.05031032335192,
right,go,0,0,0,0,11,2,68,3,312.79951906204224,None,1,0.30982089042663574,312.79951906204224,None,313.21621799468994,None,314.23211693763733,314.5924479961395,314.23211693763733,314.5924479961395,313.21621799468994,None,313.21621799468994,None,313.21621799468994,None,1,True,163.65981101989746,350.88038444519043,right,315.6379771232605,None,-1,-1,pp_13,icub,clamp,2021_Dec_23_1124,exp,2021.2.3,60.05031032335192,
right,go,0,0,0,0,11,3,69,4,316.16254711151123,None,1,0.40796995162963867,316.16254711151123,None,316.7029960155487,None,317.69997000694275,318.04923701286316,317.69997000694275,318.04923701286316,316.7029960155487,None,316.7029960155487,None,316.7029960155487,None,1,True,206.78210258483887,298.1264591217041,right,319.1176290512085,None,-1,-1,pp_13,icub,clamp,2021_Dec_23_1124,exp,2021.2.3,60.05031032335192,
left,stop,0,0,0,0,11,4,70,2,319.63185811042786,None,1,0.26476407051086426,319.63185811042786,None,319.9873208999634,None,321.0011320114136,321.35143208503723,321.0011320114136,321.35143208503723,319.9873208999634,None,319.9873208999634,None,319.9873208999634,None,0,True,214.45870399475098,350.2316474914551,left,322.445720911026,None,50,-50,pp_13,icub,clamp,2021_Dec_23_1124,exp,2021.2.3,60.05031032335192,
left,stop,0,0,0,0,11,5,71,2,322.96281003952026,None,1,0.12352919578552246,322.96281003952026,None,323.18384194374084,None,324.17958998680115,324.5375380516052,324.17958998680115,324.5375380516052,323.18384194374084,None,323.18384194374084,None,323.18384194374084,None,0,True,181.41555786132812,395.4041004180908,left,325.64701104164124,None,0,-50,pp_13,icub,clamp,2021_Dec_23_1124,exp,2021.2.3,60.05031032335192,
left,go,0,0,0,0,12,0,72,0,326.16394209861755,None,1,0.037615060806274414,326.16394209861755,None,326.27215099334717,None,327.2811529636383,327.64675307273865,327.2811529636383,327.64675307273865,326.27215099334717,None,326.27215099334717,None,326.27215099334717,None,1,True,158.70022773742676,301.03564262390137,left,328.63615798950195,None,-1,-1,pp_13,icub,clamp,2021_Dec_23_1124,exp,2021.2.3,60.05031032335192,
right,stop,0,0,0,0,12,1,73,5,329.1373550891876,None,1,0.2286219596862793,329.1373550891876,None,329.49359703063965,None,330.5035469532013,330.86978697776794,330.5035469532013,330.86978697776794,329.49359703063965,None,329.49359703063965,None,329.49359703063965,None,0,False,-1.0,-1.0,-1,331.3470039367676,None,,,pp_13,icub,clamp,2021_Dec_23_1124,exp,2021.2.3,60.05031032335192,
left,go,0,0,0,0,12,2,74,0,331.8506989479065,None,1,0.564971923828125,331.8506989479065,None,332.5212709903717,None,333.5275399684906,333.8855850696564,333.5275399684906,333.8855850696564,332.5212709903717,None,332.5212709903717,None,332.5212709903717,None,0,False,-1.0,-1.0,-1,334.40577602386475,None,,,pp_13,icub,clamp,2021_Dec_23_1124,exp,2021.2.3,60.05031032335192,
right,go,0,0,0,0,12,3,75,4,334.92383003234863,None,1,0.9491031169891357,334.92383003234863,None,335.9880700111389,None,336.9964599609375,337.3428831100464,336.9964599609375,337.3428831100464,335.9880700111389,None,335.9880700111389,None,335.9880700111389,None,0,False,-1.0,-1.0,-1,337.827348947525,None,,,pp_13,icub,clamp,2021_Dec_23_1124,exp,2021.2.3,60.05031032335192,
right,go,0,0,0,0,12,4,76,3,338.33725094795227,None,1,0.559128999710083,338.33725094795227,None,338.9870569705963,None,339.9799840450287,340.33219599723816,339.9799840450287,340.33219599723816,338.9870569705963,None,338.9870569705963,None,338.9870569705963,None,0,False,-1.0,-1.0,-1,340.7337009906769,None,,,pp_13,icub,clamp,2021_Dec_23_1124,exp,2021.2.3,60.05031032335192,
left,go,0,0,0,0,12,5,77,0,341.24505496025085,None,1,0.5378270149230957,341.24505496025085,None,341.870414018631,None,342.88243293762207,343.24006390571594,342.88243293762207,343.24006390571594,341.870414018631,None,341.870414018631,None,341.870414018631,None,1,True,260.96558570861816,395.73097229003906,left,344.4165790081024,None,-1,-1,pp_13,icub,clamp,2021_Dec_23_1124,exp,2021.2.3,60.05031032335192,
left,stop,1,0,1,0,0,0,0,2,451.8114159107208,None,1,1.3820018768310547,451.8114159107208,None,453.31659412384033,None,454.3413920402527,454.687842130661,454.3413920402527,454.687842130661,453.31659412384033,None,453.31659412384033,None,453.31659412384033,None,0,True,279.3912887573242,337.18109130859375,left,455.8349049091339,None,-50,-50,pp_13,icub,clamp,2021_Dec_23_1124,exp,2021.2.3,60.05031032335192,
right,stop,1,0,1,0,0,1,1,5,456.3400990962982,None,1,0.6320381164550781,456.3400990962982,None,457.0726320743561,None,458.10583996772766,458.45483207702637,458.10583996772766,458.45483207702637,457.0726320743561,None,457.0726320743561,None,457.0726320743561,None,0,True,115.31352996826172,287.5704765319824,right,459.35034704208374,None,-100,-50,pp_13,icub,clamp,2021_Dec_23_1124,exp,2021.2.3,60.05031032335192,
left,stop,1,0,1,0,0,2,2,2,459.8653221130371,None,1,0.2522468566894531,459.8653221130371,None,460.2235860824585,None,461.2172350883484,461.5730800628662,461.2172350883484,461.5730800628662,460.2235860824585,None,460.2235860824585,None,460.2235860824585,None,0,True,49.077510833740234,341.2432670593262,left,462.49246311187744,None,-100,-100,pp_13,icub,clamp,2021_Dec_23_1124,exp,2021.2.3,60.05031032335192,
left,stop,1,0,1,0,0,3,3,2,463.00956296920776,None,1,0.12448596954345703,463.00956296920776,None,463.24084305763245,None,464.2450189590454,464.59546995162964,464.2450189590454,464.59546995162964,463.24084305763245,None,463.24084305763245,None,463.24084305763245,None,0,True,239.11643028259277,320.28746604919434,left,465.68650102615356,None,-150,-100,pp_13,icub,clamp,2021_Dec_23_1124,exp,2021.2.3,60.05031032335192,
left,go,1,0,1,0,0,4,4,1,466.2000710964203,None,1,0.15585589408874512,466.2000710964203,None,466.4361779689789,None,467.4456949234009,467.8043909072876,467.4456949234009,467.8043909072876,466.4361779689789,None,466.4361779689789,None,466.4361779689789,None,1,True,229.50196266174316,322.09300994873047,left,468.8912990093231,None,-1,-1,pp_13,icub,clamp,2021_Dec_23_1124,exp,2021.2.3,60.05031032335192,
right,go,1,0,1,0,0,5,5,4,469.3943591117859,None,1,0.17163705825805664,469.3943591117859,None,469.6849799156189,None,470.70813512802124,471.07279801368713,470.70813512802124,471.07279801368713,469.6849799156189,None,469.6849799156189,None,469.6849799156189,None,1,True,134.9771022796631,312.56890296936035,right,472.0396981239319,None,-1,-1,pp_13,icub,clamp,2021_Dec_23_1124,exp,2021.2.3,60.05031032335192,
right,stop,1,0,1,0,1,0,6,5,472.571711063385,None,1,0.03330588340759277,472.571711063385,None,472.68052911758423,None,473.6792891025543,474.00079011917114,473.6792891025543,474.00079011917114,472.68052911758423,None,472.68052911758423,None,472.68052911758423,None,0,True,251.15036964416504,323.4703540802002,right,475.15777707099915,None,-200,-100,pp_13,icub,clamp,2021_Dec_23_1124,exp,2021.2.3,60.05031032335192,
right,go,1,0,1,0,1,1,7,3,475.6644940376282,None,1,0.05550694465637207,475.6644940376282,None,475.835480928421,None,476.84060502052307,477.1978259086609,476.84060502052307,477.1978259086609,475.835480928421,None,475.835480928421,None,475.835480928421,None,1,True,217.3900604248047,296.7870235443115,right,478.2470440864563,None,-1,-1,pp_13,icub,clamp,2021_Dec_23_1124,exp,2021.2.3,60.05031032335192,
left,go,1,0,1,0,1,2,8,1,478.76014494895935,None,1,0.22454595565795898,478.76014494895935,None,479.11265897750854,None,480.1023299694061,480.4582190513611,480.1023299694061,480.4582190513611,479.11265897750854,None,479.11265897750854,None,479.11265897750854,None,1,True,219.44260597229004,366.5006160736084,left,481.5757489204407,None,-1,-1,pp_13,icub,clamp,2021_Dec_23_1124,exp,2021.2.3,60.05031032335192,
right,stop,1,0,1,0,1,3,9,5,482.0881299972534,None,1,0.04457807540893555,482.0881299972534,None,482.25544810295105,None,483.2610409259796,483.62652492523193,483.2610409259796,483.62652492523193,482.25544810295105,None,482.25544810295105,None,482.25544810295105,None,1,True,2010.4715824127197,-1.0,-1,489.16876196861267,None,-200,-150,pp_13,icub,clamp,2021_Dec_23_1124,exp,2021.2.3,60.05031032335192,
right,go,1,0,1,0,1,4,10,4,489.7001221179962,None,1,1.8328619003295898,489.7001221179962,None,491.6740810871124,None,492.6852569580078,493.03445506095886,492.6852569580078,493.03445506095886,491.6740810871124,None,491.6740810871124,None,491.6740810871124,None,1,True,199.65386390686035,378.3392906188965,right,494.13129806518555,None,-1,-1,pp_13,icub,clamp,2021_Dec_23_1124,exp,2021.2.3,60.05031032335192,
left,go,1,0,1,0,1,5,11,1,494.6336569786072,None,1,0.17842912673950195,494.6336569786072,None,494.91529297828674,None,495.9358139038086,496.2979691028595,495.9358139038086,496.2979691028595,494.91529297828674,None,494.91529297828674,None,494.91529297828674,None,1,True,276.74388885498047,396.78502082824707,left,497.46114897727966,None,-1,-1,pp_13,icub,clamp,2021_Dec_23_1124,exp,2021.2.3,60.05031032335192,
right,go,1,0,1,0,2,0,12,4,497.9791510105133,None,1,0.2012331485748291,497.9791510105133,None,498.2743260860443,None,499.2900331020355,499.64748907089233,499.2900331020355,499.64748907089233,498.2743260860443,None,498.2743260860443,None,498.2743260860443,None,1,True,165.79079627990723,385.2877616882324,right,500.7309079170227,None,-1,-1,pp_13,icub,clamp,2021_Dec_23_1124,exp,2021.2.3,60.05031032335192,
right,stop,1,0,1,0,2,1,13,5,501.24904704093933,None,1,0.18517708778381348,501.24904704093933,None,501.5437788963318,None,502.5553479194641,502.9136919975281,502.5553479194641,502.9136919975281,501.5437788963318,None,501.5437788963318,None,501.5437788963318,None,0,True,253.7841796875,326.1246681213379,right,504.0176250934601,None,-200,-100,pp_13,icub,clamp,2021_Dec_23_1124,exp,2021.2.3,60.05031032335192,
left,go,1,0,1,0,2,2,14,0,504.5325291156769,None,1,0.10833001136779785,504.5325291156769,None,504.76497507095337,None,505.77615904808044,506.1432909965515,505.77615904808044,506.1432909965515,504.76497507095337,None,504.76497507095337,None,504.76497507095337,None,1,True,117.71297454833984,312.21675872802734,left,507.1064500808716,None,-1,-1,pp_13,icub,clamp,2021_Dec_23_1124,exp,2021.2.3,60.05031032335192,
left,go,1,0,1,0,2,3,15,1,507.6260781288147,None,1,0.23679900169372559,507.6260781288147,None,507.98241209983826,None,508.9865219593048,509.34778809547424,508.9865219593048,509.34778809547424,507.98241209983826,None,507.98241209983826,None,507.98241209983826,None,1,True,229.50243949890137,373.61669540405273,left,510.4653830528259,None,-1,-1,pp_13,icub,clamp,2021_Dec_23_1124,exp,2021.2.3,60.05031032335192,
left,go,1,0,1,0,2,4,16,0,510.98547291755676,None,1,0.19344496726989746,510.98547291755676,None,511.28003191947937,None,512.2839770317078,512.6333799362183,512.2839770317078,512.6333799362183,511.28003191947937,None,511.28003191947937,None,511.28003191947937,None,1,True,291.11313819885254,414.5650863647461,left,513.8570530414581,None,-1,-1,pp_13,icub,clamp,2021_Dec_23_1124,exp,2021.2.3,60.05031032335192,
left,stop,1,0,1,0,2,5,17,2,514.3685591220856,None,1,0.2274470329284668,514.3685591220856,None,514.7230060100555,None,515.7514209747314,516.0899820327759,515.7514209747314,516.0899820327759,514.7230060100555,None,514.7230060100555,None,514.7230060100555,None,0,True,214.5998477935791,320.25980949401855,left,517.1554839611053,None,-200,-150,pp_13,icub,clamp,2021_Dec_23_1124,exp,2021.2.3,60.05031032335192,
left,stop,1,0,1,0,3,0,18,2,517.6751320362091,None,1,0.10142803192138672,517.6751320362091,None,517.905308008194,None,518.8978459835052,519.254497051239,518.8978459835052,519.254497051239,517.905308008194,None,517.905308008194,None,517.905308008194,None,0,True,191.8325424194336,343.0333137512207,left,520.3213450908661,None,-250,-150,pp_13,icub,clamp,2021_Dec_23_1124,exp,2021.2.3,60.05031032335192,
left,go,1,0,1,0,3,1,19,0,520.8333129882812,None,1,0.137315034866333,520.8333129882812,None,521.0706191062927,None,522.1020269393921,522.4481539726257,522.1020269393921,522.4481539726257,521.0706191062927,None,521.0706191062927,None,521.0706191062927,None,0,False,-1.0,-1.0,-1,522.9107880592346,None,,,pp_13,icub,clamp,2021_Dec_23_1124,exp,2021.2.3,60.05031032335192,
left,stop,1,0,1,0,3,2,20,2,523.4178879261017,None,1,0.43793416023254395,523.4178879261017,None,523.9500319957733,None,524.950138092041,525.3085050582886,524.950138092041,525.3085050582886,523.9500319957733,None,523.9500319957733,None,523.9500319957733,None,0,True,86.86470985412598,363.24143409729004,left,526.2897350788116,None,-300,-150,pp_13,icub,clamp,2021_Dec_23_1124,exp,2021.2.3,60.05031032335192,
left,go,1,0,1,0,3,3,21,1,526.7956159114838,None,1,0.21885180473327637,526.7956159114838,None,527.0898139476776,None,528.0869219303131,528.4337689876556,528.0869219303131,528.4337689876556,527.0898139476776,None,527.0898139476776,None,527.0898139476776,None,1,True,285.4351997375488,390.8674716949463,left,529.6821529865265,None,-1,-1,pp_13,icub,clamp,2021_Dec_23_1124,exp,2021.2.3,60.05031032335192,
right,go,1,0,1,0,3,4,22,3,530.203784942627,None,1,0.0759439468383789,530.203784942627,None,530.368036031723,None,531.386815071106,531.7416999340057,531.386815071106,531.7416999340057,530.368036031723,None,530.368036031723,None,530.368036031723,None,1,True,709.348201751709,474.6227264404297,right,533.4368760585785,None,-1,-1,pp_13,icub,clamp,2021_Dec_23_1124,exp,2021.2.3,60.05031032335192,
left,go,1,0,1,0,3,5,23,1,533.9352920055389,None,1,0.5420968532562256,533.9352920055389,None,534.5617129802704,None,535.5634489059448,535.8968250751495,535.5634489059448,535.8968250751495,534.5617129802704,None,534.5617129802704,None,534.5617129802704,None,1,True,246.2468147277832,340.82865715026855,left,537.0389380455017,None,-1,-1,pp_13,icub,clamp,2021_Dec_23_1124,exp,2021.2.3,60.05031032335192,
left,go,1,0,1,0,4,0,24,1,537.5478429794312,None,1,0.37030887603759766,537.5478429794312,None,538.0280299186707,None,539.0612530708313,539.4191069602966,539.0612530708313,539.4191069602966,538.0280299186707,None,538.0280299186707,None,538.0280299186707,None,1,True,335.48641204833984,364.15719985961914,left,540.6071310043335,None,-1,-1,pp_13,icub,clamp,2021_Dec_23_1124,exp,2021.2.3,60.05031032335192,
left,go,1,0,1,0,4,1,25,0,541.1155660152435,None,1,0.27475404739379883,541.1155660152435,None,541.4707341194153,None,542.5055899620056,542.8514499664307,542.5055899620056,542.8514499664307,541.4707341194153,None,541.4707341194153,None,541.4707341194153,None,1,True,109.46798324584961,400.8204936981201,left,543.8534750938416,None,-1,-1,pp_13,icub,clamp,2021_Dec_23_1124,exp,2021.2.3,60.05031032335192,
left,go,1,0,1,0,4,2,26,1,544.3729820251465,None,1,0.28421711921691895,544.3729820251465,None,544.7326400279999,None,545.7549459934235,546.1063809394836,545.7549459934235,546.1063809394836,544.7326400279999,None,544.7326400279999,None,544.7326400279999,None,1,True,153.2425880432129,344.4628715515137,left,547.135272026062,None,-1,-1,pp_13,icub,clamp,2021_Dec_23_1124,exp,2021.2.3,60.05031032335192,
right,stop,1,0,1,0,4,3,27,5,547.6509659290314,None,1,0.22103190422058105,547.6509659290314,None,547.9475281238556,None,548.9438650608063,549.2882339954376,548.9438650608063,549.2882339954376,547.9475281238556,None,547.9475281238556,None,547.9475281238556,None,0,False,-1.0,-1.0,-1,549.747908115387,None,,,pp_13,icub,clamp,2021_Dec_23_1124,exp,2021.2.3,60.05031032335192,
left,go,1,0,1,0,4,4,28,0,550.2637469768524,None,1,0.43381309509277344,550.2637469768524,None,550.8032350540161,None,551.8279540538788,552.1775228977203,551.8279540538788,552.1775228977203,550.8032350540161,None,550.8032350540161,None,550.8032350540161,None,1,True,171.45919799804688,392.9150104522705,left,553.2612419128418,None,-1,-1,pp_13,icub,clamp,2021_Dec_23_1124,exp,2021.2.3,60.05031032335192,
right,go,1,0,1,0,4,5,29,4,553.7765069007874,None,1,0.10812807083129883,553.7765069007874,None,554.0022039413452,None,555.0292360782623,555.3553400039673,555.0292360782623,555.3553400039673,554.0022039413452,None,554.0022039413452,None,554.0022039413452,None,1,True,266.0520076751709,391.60633087158203,right,556.5374279022217,None,-1,-1,pp_13,icub,clamp,2021_Dec_23_1124,exp,2021.2.3,60.05031032335192,
left,stop,1,0,1,0,5,0,30,2,557.0586559772491,None,1,0.2122640609741211,557.0586559772491,None,557.356085062027,None,558.3717820644379,558.7340168952942,558.3717820644379,558.7340168952942,557.356085062027,None,557.356085062027,None,557.356085062027,None,0,True,276.45421028137207,401.2298583984375,left,559.9467461109161,None,-350,-150,pp_13,icub,clamp,2021_Dec_23_1124,exp,2021.2.3,60.05031032335192,
left,go,1,0,1,0,5,1,31,1,560.448949098587,None,1,0.11081480979919434,560.448949098587,None,560.6797080039978,None,561.6795830726624,562.0429089069366,561.6795830726624,562.0429089069366,560.6797080039978,None,560.6797080039978,None,560.6797080039978,None,1,True,333.02903175354004,421.856164932251,left,563.33327293396,None,-1,-1,pp_13,icub,clamp,2021_Dec_23_1124,exp,2021.2.3,60.05031032335192,
right,go,1,0,1,0,5,2,32,3,563.8360149860382,None,1,0.1934051513671875,563.8360149860382,None,564.129065990448,None,565.1547729969025,565.5140330791473,565.1547729969025,565.5140330791473,564.129065990448,None,564.129065990448,None,564.129065990448,None,1,True,213.79804611206055,370.9597587585449,right,566.6222751140594,None,-1,-1,pp_13,icub,clamp,2021_Dec_23_1124,exp,2021.2.3,60.05031032335192,
left,stop,1,0,1,0,5,3,33,2,567.1478989124298,None,1,2.4603679180145264,567.1478989124298,None,569.7157340049744,None,570.6987040042877,571.0415070056915,570.6987040042877,571.0415070056915,569.7157340049744,None,569.7157340049744,None,569.7157340049744,None,0,True,248.08096885681152,393.2301998138428,left,572.240072965622,None,-400,-150,pp_13,icub,clamp,2021_Dec_23_1124,exp,2021.2.3,60.05031032335192,
left,stop,1,0,1,0,5,4,34,2,572.760617017746,None,1,0.03880000114440918,572.760617017746,None,572.927582025528,None,573.9481749534607,574.3104939460754,573.9481749534607,574.3104939460754,572.927582025528,None,572.927582025528,None,572.927582025528,None,0,True,274.60503578186035,380.756139755249,left,575.4529941082001,None,-450,-150,pp_13,icub,clamp,2021_Dec_23_1124,exp,2021.2.3,60.05031032335192,
right,stop,1,0,1,0,5,5,35,5,575.967346906662,None,1,0.0532679557800293,575.967346906662,None,576.1361849308014,None,577.1699750423431,577.5400130748749,577.1699750423431,577.5400130748749,576.1361849308014,None,576.1361849308014,None,576.1361849308014,None,0,True,202.3787498474121,351.3016700744629,right,578.5830979347229,None,-500,-150,pp_13,icub,clamp,2021_Dec_23_1124,exp,2021.2.3,60.05031032335192,
left,stop,1,0,1,0,6,0,36,2,579.0939340591431,None,1,2.316033124923706,579.0939340591431,None,581.5426070690155,None,582.5259881019592,582.8557529449463,582.5259881019592,582.8557529449463,581.5426070690155,None,581.5426070690155,None,581.5426070690155,None,0,True,318.7849521636963,397.2821235656738,left,584.133101940155,None,-500,-200,pp_13,icub,clamp,2021_Dec_23_1124,exp,2021.2.3,60.05031032335192,
left,go,1,0,1,0,6,1,37,0,584.6628859043121,None,1,3.1389870643615723,584.6628859043121,None,587.9266180992126,None,588.9026410579681,589.2581939697266,588.9026410579681,589.2581939697266,587.9266180992126,None,587.9266180992126,None,587.9266180992126,None,1,True,230.52263259887695,365.51380157470703,left,590.3915901184082,None,-1,-1,pp_13,icub,clamp,2021_Dec_23_1124,exp,2021.2.3,60.05031032335192,
right,stop,1,0,1,0,6,2,38,5,590.9145460128784,None,1,0.012825965881347656,590.9145460128784,None,591.022134065628,None,592.0321910381317,592.3871729373932,592.0321910381317,592.3871729373932,591.022134065628,None,591.022134065628,None,591.022134065628,None,0,True,371.9158172607422,363.8150691986084,right,593.6507980823517,None,-550,-200,pp_13,icub,clamp,2021_Dec_23_1124,exp,2021.2.3,60.05031032335192,
right,stop,1,0,1,0,6,3,39,5,594.1698279380798,None,1,1.3139491081237793,594.1698279380798,None,595.6171410083771,None,596.5993759632111,596.9570450782776,596.5993759632111,596.9570450782776,595.6171410083771,None,595.6171410083771,None,595.6171410083771,None,0,True,220.06750106811523,322.1173286437988,right,598.0583329200745,None,-550,-250,pp_13,icub,clamp,2021_Dec_23_1124,exp,2021.2.3,60.05031032335192,
left,go,1,0,1,0,6,4,40,0,598.5753540992737,None,1,0.028443098068237305,598.5753540992737,None,598.6813340187073,None,599.7025580406189,600.0596160888672,599.7025580406189,600.0596160888672,598.6813340187073,None,598.6813340187073,None,598.6813340187073,None,1,True,276.1070728302002,322.03197479248047,left,601.1874859333038,None,-1,-1,pp_13,icub,clamp,2021_Dec_23_1124,exp,2021.2.3,60.05031032335192,
left,go,1,0,1,0,6,5,41,0,601.7020609378815,None,1,0.29395604133605957,601.7020609378815,None,602.1203780174255,None,603.11305809021,603.4664170742035,603.11305809021,603.4664170742035,602.1203780174255,None,602.1203780174255,None,602.1203780174255,None,1,True,230.43465614318848,305.2182197570801,left,604.5342359542847,None,-1,-1,pp_13,icub,clamp,2021_Dec_23_1124,exp,2021.2.3,60.05031032335192,
right,go,1,0,1,0,7,0,42,3,605.0693259239197,None,1,0.3966238498687744,605.0693259239197,None,605.5515561103821,None,606.5470139980316,606.8982539176941,606.5470139980316,606.8982539176941,605.5515561103821,None,605.5515561103821,None,605.5515561103821,None,1,True,249.4053840637207,362.4420166015625,right,608.031485080719,None,-1,-1,pp_13,icub,clamp,2021_Dec_23_1124,exp,2021.2.3,60.05031032335192,
left,go,1,0,1,0,7,1,43,1,608.5567860603333,None,1,0.21720099449157715,608.5567860603333,None,608.8543789386749,None,609.8810040950775,610.2401211261749,609.8810040950775,610.2401211261749,608.8543789386749,None,608.8543789386749,None,608.8543789386749,None,1,True,429.34417724609375,325.2854347229004,left,611.5056450366974,None,-1,-1,pp_13,icub,clamp,2021_Dec_23_1124,exp,2021.2.3,60.05031032335192,
right,go,1,0,1,0,7,2,44,4,612.0177760124207,None,1,0.2623460292816162,612.0177760124207,None,612.3728051185608,None,613.4020409584045,613.7477879524231,613.4020409584045,613.7477879524231,612.3728051185608,None,612.3728051185608,None,612.3728051185608,None,1,True,269.99664306640625,349.95007514953613,right,614.8919389247894,None,-1,-1,pp_13,icub,clamp,2021_Dec_23_1124,exp,2021.2.3,60.05031032335192,
right,go,1,0,1,0,7,3,45,3,615.417699098587,None,1,0.14115095138549805,615.417699098587,None,615.6494140625,None,616.6860699653625,617.0280070304871,616.6860699653625,617.0280070304871,615.6494140625,None,615.6494140625,None,615.6494140625,None,1,True,527.6117324829102,360.32724380493164,right,618.4363250732422,None,-1,-1,pp_13,icub,clamp,2021_Dec_23_1124,exp,2021.2.3,60.05031032335192,
left,go,1,0,1,0,7,4,46,1,618.9539580345154,None,1,0.022423982620239258,618.9539580345154,None,619.0597920417786,None,620.0579190254211,620.3788619041443,620.0579190254211,620.3788619041443,619.0597920417786,None,619.0597920417786,None,619.0597920417786,None,0,False,1797.7676391601562,-1.0,-1,625.7458999156952,None,-1,-1,pp_13,icub,clamp,2021_Dec_23_1124,exp,2021.2.3,60.05031032335192,
right,go,1,0,1,0,7,5,47,4,626.239471912384,None,1,2.878736972808838,626.239471912384,None,629.2011659145355,None,630.1824820041656,630.5409159660339,630.1824820041656,630.5409159660339,629.2011659145355,None,629.2011659145355,None,629.2011659145355,None,1,True,132.34758377075195,292.741060256958,right,631.5215430259705,None,-1,-1,pp_13,icub,clamp,2021_Dec_23_1124,exp,2021.2.3,60.05031032335192,
right,go,1,0,1,0,8,0,48,4,632.0433371067047,None,1,12.847692966461182,632.0433371067047,None,644.9767479896545,None,645.9786660671234,646.3285970687866,645.9786660671234,646.3285970687866,644.9767479896545,None,644.9767479896545,None,644.9767479896545,None,1,True,212.0962142944336,376.31797790527344,right,647.4497880935669,None,-1,-1,pp_13,icub,clamp,2021_Dec_23_1124,exp,2021.2.3,60.05031032335192,
right,go,1,0,1,0,8,1,49,3,647.9551301002502,None,1,1.2989349365234375,647.9551301002502,None,649.3607270717621,None,650.3680999279022,650.7341980934143,650.3680999279022,650.7341980934143,649.3607270717621,None,649.3607270717621,None,649.3607270717621,None,1,True,379.9610137939453,390.54226875305176,right,652.0371129512787,None,-1,-1,pp_13,icub,clamp,2021_Dec_23_1124,exp,2021.2.3,60.05031032335192,
left,go,1,0,1,0,8,2,50,0,652.548553943634,None,1,0.418734073638916,652.548553943634,None,653.0913989543915,None,654.0956139564514,654.4413321018219,654.0956139564514,654.4413321018219,653.0913989543915,None,653.0913989543915,None,653.0913989543915,None,1,True,147.29714393615723,382.8303813934326,left,655.4995679855347,None,-1,-1,pp_13,icub,clamp,2021_Dec_23_1124,exp,2021.2.3,60.05031032335192,
right,stop,1,0,1,0,8,3,51,5,656.0323309898376,None,1,0.19779300689697266,656.0323309898376,None,656.3313879966736,None,657.3505699634552,657.6978061199188,657.3505699634552,657.6978061199188,656.3313879966736,None,656.3313879966736,None,656.3313879966736,None,0,True,191.01786613464355,335.0679874420166,right,658.7517940998077,None,-550,-300,pp_13,icub,clamp,2021_Dec_23_1124,exp,2021.2.3,60.05031032335192,
left,go,1,0,1,0,8,4,52,0,659.2615189552307,None,1,0.04263496398925781,659.2615189552307,None,659.4321880340576,None,660.4507410526276,660.7980561256409,660.4507410526276,660.7980561256409,659.4321880340576,None,659.4321880340576,None,659.4321880340576,None,1,True,321.6841220855713,347.7747440338135,left,661.9979910850525,None,-1,-1,pp_13,icub,clamp,2021_Dec_23_1124,exp,2021.2.3,60.05031032335192,
right,go,1,0,1,0,8,5,53,3,662.5097389221191,None,1,0.2603311538696289,662.5097389221191,None,662.8710899353027,None,663.9064240455627,664.2756040096283,663.9064240455627,664.2756040096283,662.8710899353027,None,662.8710899353027,None,662.8710899353027,None,1,True,424.87359046936035,357.4676513671875,right,665.5376551151276,None,-1,-1,pp_13,icub,clamp,2021_Dec_23_1124,exp,2021.2.3,60.05031032335192,
right,go,1,0,1,0,9,0,54,3,666.0636761188507,None,1,0.22817492485046387,666.0636761188507,None,666.4204769134521,None,667.4188330173492,667.7679159641266,667.4188330173492,667.7679159641266,666.4204769134521,None,666.4204769134521,None,666.4204769134521,None,1,True,273.73194694519043,374.0866184234619,right,668.9473171234131,None,-1,-1,pp_13,icub,clamp,2021_Dec_23_1124,exp,2021.2.3,60.05031032335192,
left,go,1,0,1,0,9,1,55,0,669.45951795578,None,1,0.3942999839782715,669.45951795578,None,669.9394369125366,None,670.9454998970032,671.3070480823517,670.9454998970032,671.3070480823517,669.9394369125366,None,669.9394369125366,None,669.9394369125366,None,1,True,162.23716735839844,434.47160720825195,left,672.433268070221,None,-1,-1,pp_13,icub,clamp,2021_Dec_23_1124,exp,2021.2.3,60.05031032335192,
right,stop,1,0,1,0,9,2,56,5,672.9419159889221,None,1,0.27698302268981934,672.9419159889221,None,673.2992849349976,None,674.315985918045,674.6688520908356,674.315985918045,674.6688520908356,673.2992849349976,None,673.2992849349976,None,673.2992849349976,None,0,True,228.87492179870605,380.3441524505615,right,675.8046669960022,None,-550,-350,pp_13,icub,clamp,2021_Dec_23_1124,exp,2021.2.3,60.05031032335192,
right,go,1,0,1,0,9,3,57,3,676.3100121021271,None,1,0.23784208297729492,676.3100121021271,None,676.6680269241333,None,677.6760849952698,678.0325949192047,677.6760849952698,678.0325949192047,676.6680269241333,None,676.6680269241333,None,676.6680269241333,None,1,True,275.6500244140625,394.5178985595703,right,679.223237991333,None,-1,-1,pp_13,icub,clamp,2021_Dec_23_1124,exp,2021.2.3,60.05031032335192,
right,go,1,0,1,0,9,4,58,4,679.7315120697021,None,1,0.014161109924316406,679.7315120697021,None,679.8398780822754,None,680.851576089859,681.2106070518494,680.851576089859,681.2106070518494,679.8398780822754,None,679.8398780822754,None,679.8398780822754,None,1,True,183.83145332336426,332.9477310180664,right,682.238214969635,None,-1,-1,pp_13,icub,clamp,2021_Dec_23_1124,exp,2021.2.3,60.05031032335192,
left,go,1,0,1,0,9,5,59,0,682.7674009799957,None,1,0.05129098892211914,682.7674009799957,None,682.9371271133423,None,683.9342370033264,684.275160074234,683.9342370033264,684.275160074234,682.9371271133423,None,682.9371271133423,None,682.9371271133423,None,1,True,76.60126686096191,367.54536628723145,left,685.2750310897827,None,-1,-1,pp_13,icub,clamp,2021_Dec_23_1124,exp,2021.2.3,60.05031032335192,
right,go,1,0,1,0,10,0,60,4,685.788635969162,None,1,0.12834405899047852,685.788635969162,None,686.0223469734192,None,687.0399279594421,687.3994801044464,687.0399279594421,687.3994801044464,686.0223469734192,None,686.0223469734192,None,686.0223469734192,None,1,True,56.60414695739746,323.68016242980957,right,688.3061130046844,None,-1,-1,pp_13,icub,clamp,2021_Dec_23_1124,exp,2021.2.3,60.05031032335192,
left,stop,1,0,1,0,10,1,61,2,688.805566072464,None,1,0.02779102325439453,688.805566072464,None,688.919163942337,None,689.9283590316772,690.2822279930115,689.9283590316772,690.2822279930115,688.919163942337,None,688.919163942337,None,688.919163942337,None,0,True,238.2514476776123,407.41491317749023,left,691.4638299942017,None,-550,-400,pp_13,icub,clamp,2021_Dec_23_1124,exp,2021.2.3,60.05031032335192,
right,go,1,0,1,0,10,2,62,4,691.9814810752869,None,1,0.2973489761352539,691.9814810752869,None,692.3966419696808,None,693.3921730518341,693.745080947876,693.3921730518341,693.745080947876,692.3966419696808,None,692.3966419696808,None,692.3966419696808,None,1,True,258.76569747924805,445.0836181640625,right,694.9790990352631,None,-1,-1,pp_13,icub,clamp,2021_Dec_23_1124,exp,2021.2.3,60.05031032335192,
left,go,1,0,1,0,10,3,63,1,695.5030128955841,None,1,0.08592891693115234,695.5030128955841,None,695.6769149303436,None,696.663733959198,697.0205619335175,696.663733959198,697.0205619335175,695.6769149303436,None,695.6769149303436,None,695.6769149303436,None,1,True,228.7149429321289,403.54228019714355,left,698.1865220069885,None,-1,-1,pp_13,icub,clamp,2021_Dec_23_1124,exp,2021.2.3,60.05031032335192,
right,stop,1,0,1,0,10,4,64,5,698.6866159439087,None,1,0.28394103050231934,698.6866159439087,None,699.1037631034851,None,700.1089880466461,700.4531779289246,700.1089880466461,700.4531779289246,699.1037631034851,None,699.1037631034851,None,699.1037631034851,None,0,True,115.2944564819336,417.802095413208,right,701.5199611186981,None,-600,-400,pp_13,icub,clamp,2021_Dec_23_1124,exp,2021.2.3,60.05031032335192,
left,go,1,0,1,0,10,5,65,1,702.0346779823303,None,1,0.12587904930114746,702.0346779823303,None,702.2667989730835,None,703.2788219451904,703.6349999904633,703.2788219451904,703.6349999904633,702.2667989730835,None,702.2667989730835,None,702.2667989730835,None,1,True,287.060022354126,386.5528106689453,left,704.8359179496765,None,-1,-1,pp_13,icub,clamp,2021_Dec_23_1124,exp,2021.2.3,60.05031032335192,
right,go,1,0,1,0,11,0,66,3,705.3546431064606,None,1,0.1850109100341797,705.3546431064606,None,705.6371059417725,None,706.6404869556427,706.9885931015015,706.6404869556427,706.9885931015015,705.6371059417725,None,705.6371059417725,None,705.6371059417725,None,1,True,416.1064624786377,369.48490142822266,right,708.306627035141,None,-1,-1,pp_13,icub,clamp,2021_Dec_23_1124,exp,2021.2.3,60.05031032335192,
right,go,1,0,1,0,11,1,67,3,708.8247890472412,None,1,0.148453950881958,708.8247890472412,None,709.0474829673767,None,710.0582830905914,710.4106779098511,710.0582830905914,710.4106779098511,709.0474829673767,None,709.0474829673767,None,709.0474829673767,None,1,True,247.9393482208252,394.1535949707031,right,711.5760109424591,None,-1,-1,pp_13,icub,clamp,2021_Dec_23_1124,exp,2021.2.3,60.05031032335192,
right,go,1,0,1,0,11,2,68,3,712.1086111068726,None,1,0.024435043334960938,712.1086111068726,None,712.2181599140167,None,713.2147541046143,713.5838711261749,713.2147541046143,713.5838711261749,712.2181599140167,None,712.2181599140167,None,712.2181599140167,None,1,True,211.43221855163574,403.55706214904785,right,714.7292449474335,None,-1,-1,pp_13,icub,clamp,2021_Dec_23_1124,exp,2021.2.3,60.05031032335192,
right,go,1,0,1,0,11,3,69,3,715.2520620822906,None,1,0.2763669490814209,715.2520620822906,None,715.6087310314178,None,716.6067159175873,716.9574689865112,716.6067159175873,716.9574689865112,715.6087310314178,None,715.6087310314178,None,715.6087310314178,None,0,False,-1.0,-1.0,-1,717.3578081130981,None,,,pp_13,icub,clamp,2021_Dec_23_1124,exp,2021.2.3,60.05031032335192,
left,stop,1,0,1,0,11,4,70,2,717.8680789470673,None,1,0.5159711837768555,717.8680789470673,None,718.4593939781189,None,719.4612240791321,719.8130550384521,719.4612240791321,719.8130550384521,718.4593939781189,None,718.4593939781189,None,718.4593939781189,None,0,True,292.45567321777344,394.67763900756836,left,721.0307281017303,None,-600,-450,pp_13,icub,clamp,2021_Dec_23_1124,exp,2021.2.3,60.05031032335192,
left,stop,1,0,1,0,11,5,71,2,721.5473909378052,None,1,0.046708106994628906,721.5473909378052,None,721.7118690013885,None,722.7122890949249,723.0555140972137,722.7122890949249,723.0555140972137,721.7118690013885,None,721.7118690013885,None,721.7118690013885,None,0,True,318.58301162719727,386.17706298828125,left,724.2890119552612,None,-650,-450,pp_13,icub,clamp,2021_Dec_23_1124,exp,2021.2.3,60.05031032335192,
left,go,1,0,1,0,12,0,72,0,724.7916069030762,None,1,0.1479940414428711,724.7916069030762,None,725.0253391265869,None,726.0447180271149,726.399099111557,726.0447180271149,726.399099111557,725.0253391265869,None,725.0253391265869,None,725.0253391265869,None,1,True,244.75646018981934,361.3910675048828,left,727.5177481174469,None,-1,-1,pp_13,icub,clamp,2021_Dec_23_1124,exp,2021.2.3,60.05031032335192,
right,go,1,0,1,0,12,1,73,4,728.0354890823364,None,1,0.5638270378112793,728.0354890823364,None,728.6991100311279,None,729.6976890563965,730.0525760650635,729.6976890563965,730.0525760650635,728.6991100311279,None,728.6991100311279,None,728.6991100311279,None,0,False,2133.8229179382324,-1.0,-1,735.7255940437317,None,-1,-1,pp_13,icub,clamp,2021_Dec_23_1124,exp,2021.2.3,60.05031032335192,
right,stop,1,0,1,0,12,2,74,5,736.2204349040985,None,1,0.40038394927978516,736.2204349040985,None,736.709389925003,None,None,None,None,None,736.709389925003,None,736.709389925003,None,736.709389925003,None,0,False,-1.0,-1.0,-1,736.8093960285187,None,,,pp_13,icub,clamp,2021_Dec_23_1124,exp,2021.2.3,60.05031032335192,
right,stop,1,0,1,0,12,3,75,5,737.3373761177063,None,1,0.6144189834594727,737.3373761177063,None,738.0738949775696,None,739.0743811130524,739.4210870265961,739.0743811130524,739.4210870265961,738.0738949775696,None,738.0738949775696,None,738.0738949775696,None,0,True,149.67966079711914,335.1128101348877,right,740.435350894928,None,-700,-450,pp_13,icub,clamp,2021_Dec_23_1124,exp,2021.2.3,60.05031032335192,
right,go,1,0,1,0,12,4,76,4,740.9500300884247,None,1,0.25818896293640137,740.9500300884247,None,741.3086030483246,None,742.3193349838257,742.6717300415039,742.3193349838257,742.6717300415039,741.3086030483246,None,741.3086030483246,None,741.3086030483246,None,1,True,75.96850395202637,419.5237159729004,right,743.6997890472412,None,-1,-1,pp_13,icub,clamp,2021_Dec_23_1124,exp,2021.2.3,60.05031032335192,
right,go,1,0,1,0,12,5,77,4,744.2103600502014,None,1,0.1947009563446045,744.2103600502014,None,744.5052490234375,None,745.5105609893799,745.8711280822754,745.5105609893799,745.8711280822754,744.5052490234375,None,744.5052490234375,None,744.5052490234375,None,1,True,269.5760726928711,371.58823013305664,right,747.0456929206848,None,-1,-1,pp_13,icub,clamp,2021_Dec_23_1124,exp,2021.2.3,60.05031032335192,
left,stop,2,0,2,0,0,0,0,2,772.3329939842224,None,1,3.5070078372955322,772.3329939842224,None,775.9587700366974,None,776.9586749076843,777.3196189403534,776.9586749076843,777.3196189403534,775.9587700366974,None,775.9587700366974,None,775.9587700366974,None,1,True,1957.1154117584229,-1.0,-1,782.8073570728302,None,-700,-500,pp_13,icub,clamp,2021_Dec_23_1124,exp,2021.2.3,60.05031032335192,
left,go,2,0,2,0,0,1,1,0,783.3413429260254,None,1,0.7041409015655518,783.3413429260254,None,784.1391229629517,None,785.1540749073029,785.5088179111481,785.1540749073029,785.5088179111481,784.1391229629517,None,784.1391229629517,None,784.1391229629517,None,1,True,89.93148803710938,325.1166343688965,left,786.4512901306152,None,-1,-1,pp_13,icub,clamp,2021_Dec_23_1124,exp,2021.2.3,60.05031032335192,
right,go,2,0,2,0,0,2,2,3,786.9656190872192,None,1,0.39463114738464355,786.9656190872192,None,787.4454259872437,None,788.4698350429535,788.8133311271667,788.4698350429535,788.8133311271667,787.4454259872437,None,787.4454259872437,None,787.4454259872437,None,1,True,271.95215225219727,311.539888381958,right,789.9254031181335,None,-1,-1,pp_13,icub,clamp,2021_Dec_23_1124,exp,2021.2.3,60.05031032335192,
right,go,2,0,2,0,0,3,3,4,790.4438869953156,None,1,0.0507960319519043,790.4438869953156,None,790.6146631240845,None,791.6249120235443,791.985454082489,791.6249120235443,791.985454082489,790.6146631240845,None,790.6146631240845,None,790.6146631240845,None,1,True,322.3080635070801,358.21986198425293,right,793.1901481151581,None,-1,-1,pp_13,icub,clamp,2021_Dec_23_1124,exp,2021.2.3,60.05031032335192,
right,go,2,0,2,0,0,4,4,4,793.6932909488678,None,1,0.6857059001922607,793.6932909488678,None,794.4861330986023,None,795.4977660179138,795.8617191314697,795.4977660179138,795.8617191314697,794.4861330986023,None,794.4861330986023,None,794.4861330986023,None,1,True,106.10079765319824,384.17530059814453,right,796.8794009685516,None,-1,-1,pp_13,icub,clamp,2021_Dec_23_1124,exp,2021.2.3,60.05031032335192,
right,stop,2,0,2,0,0,5,5,5,797.3988740444183,None,1,0.6210050582885742,797.3988740444183,None,798.1306641101837,None,799.1629619598389,799.5238790512085,799.1629619598389,799.5238790512085,798.1306641101837,None,798.1306641101837,None,798.1306641101837,None,0,True,70.24192810058594,327.1527290344238,right,800.4053289890289,None,-650,-500,pp_13,icub,clamp,2021_Dec_23_1124,exp,2021.2.3,60.05031032335192,
right,go,2,0,2,0,1,0,6,4,800.9200530052185,None,1,0.3465120792388916,800.9200530052185,None,801.3990640640259,None,802.4072389602661,802.7603690624237,802.4072389602661,802.7603690624237,801.3990640640259,None,801.3990640640259,None,801.3990640640259,None,0,False,3001.0316371917725,-1.0,-1,806.2904291152954,None,,,pp_13,icub,clamp,2021_Dec_23_1124,exp,2021.2.3,60.05031032335192,
right,go,2,0,2,0,1,1,7,3,806.8116109371185,None,1,2.150618076324463,806.8116109371185,None,809.0920510292053,None,810.071888923645,810.4171431064606,810.071888923645,810.4171431064606,809.0920510292053,None,809.0920510292053,None,809.0920510292053,None,1,True,272.08948135375977,348.71721267700195,right,811.6152060031891,None,-1,-1,pp_13,icub,clamp,2021_Dec_23_1124,exp,2021.2.3,60.05031032335192,
right,stop,2,0,2,0,1,2,8,5,812.1329209804535,None,1,0.2366499900817871,812.1329209804535,None,812.4844241142273,None,813.4915339946747,813.8558619022369,813.4915339946747,813.8558619022369,812.4844241142273,None,812.4844241142273,None,812.4844241142273,None,1,True,307.4960708618164,-1.0,-1,817.6869139671326,None,-650,-550,pp_13,icub,clamp,2021_Dec_23_1124,exp,2021.2.3,60.05031032335192,
left,go,2,0,2,0,1,3,9,1,818.219612121582,None,1,2.0639500617980957,818.219612121582,None,820.3802700042725,None,821.3655240535736,821.7097969055176,821.3655240535736,821.7097969055176,820.3802700042725,None,820.3802700042725,None,820.3802700042725,None,1,True,10.36834716796875,404.8581123352051,left,822.6865990161896,None,-1,-1,pp_13,icub,clamp,2021_Dec_23_1124,exp,2021.2.3,60.05031032335192,
right,go,2,0,2,0,1,4,10,4,823.21710896492,None,1,0.2896389961242676,823.21710896492,None,823.6345770359039,None,824.6373529434204,824.9971539974213,824.6373529434204,824.9971539974213,823.6345770359039,None,823.6345770359039,None,823.6345770359039,None,1,True,99.66325759887695,470.64924240112305,right,826.0891599655151,None,-1,-1,pp_13,icub,clamp,2021_Dec_23_1124,exp,2021.2.3,60.05031032335192,
left,stop,2,0,2,0,1,5,11,2,826.6173160076141,None,1,0.24191594123840332,826.6173160076141,None,826.9746739864349,None,827.9817368984222,828.335727930069,827.9817368984222,828.335727930069,826.9746739864349,None,826.9746739864349,None,826.9746739864349,None,0,False,3000.0133514404297,-1.0,-1,831.8700180053711,None,,,pp_13,icub,clamp,2021_Dec_23_1124,exp,2021.2.3,60.05031032335192,
right,go,2,0,2,0,2,0,12,3,832.3686408996582,None,1,0.8014099597930908,832.3686408996582,None,833.2920639514923,None,834.2777760028839,834.6229588985443,834.2777760028839,834.6229588985443,833.2920639514923,None,833.2920639514923,None,833.2920639514923,None,1,True,121.5512752532959,351.4406681060791,right,835.6661450862885,None,-1,-1,pp_13,icub,clamp,2021_Dec_23_1124,exp,2021.2.3,60.05031032335192,
left,go,2,0,2,0,2,1,13,1,836.1891570091248,None,1,2.1145570278167725,836.1891570091248,None,838.4036390781403,None,839.4306271076202,839.780179977417,839.4306271076202,839.780179977417,838.4036390781403,None,838.4036390781403,None,838.4036390781403,None,1,True,35.66741943359375,422.1072196960449,left,840.7606060504913,None,-1,-1,pp_13,icub,clamp,2021_Dec_23_1124,exp,2021.2.3,60.05031032335192,
right,go,2,0,2,0,2,2,14,4,841.2665240764618,None,1,0.4519040584564209,841.2665240764618,None,841.80876994133,None,842.8345460891724,843.1759181022644,842.8345460891724,843.1759181022644,841.80876994133,None,841.80876994133,None,841.80876994133,None,0,False,3000.896215438843,-1.0,-1,846.6924469470978,None,,,pp_13,icub,clamp,2021_Dec_23_1124,exp,2021.2.3,60.05031032335192,
right,go,2,0,2,0,2,3,15,4,847.2194759845734,None,1,1.322638988494873,847.2194759845734,None,848.6284201145172,None,849.6520609855652,850.0151319503784,849.6520609855652,850.0151319503784,848.6284201145172,None,848.6284201145172,None,848.6284201145172,None,1,True,103.20186614990234,441.6203498840332,right,851.0484790802002,None,-1,-1,pp_13,icub,clamp,2021_Dec_23_1124,exp,2021.2.3,60.05031032335192,
right,stop,2,0,2,0,2,4,16,5,851.5690569877625,None,1,0.5761711597442627,851.5690569877625,None,852.2337028980255,None,853.2318530082703,853.5667591094971,853.2318530082703,853.5667591094971,852.2337028980255,None,852.2337028980255,None,852.2337028980255,None,0,True,32.03868865966797,448.0125904083252,right,854.6280319690704,None,-650,-500,pp_13,icub,clamp,2021_Dec_23_1124,exp,2021.2.3,60.05031032335192,
right,go,2,0,2,0,2,5,17,3,855.1323781013489,None,1,0.6788859367370605,855.1323781013489,None,855.9202740192413,None,856.9141879081726,857.2686569690704,856.9141879081726,857.2686569690704,855.9202740192413,None,855.9202740192413,None,855.9202740192413,None,1,True,225.33226013183594,426.35059356689453,right,858.4580569267273,None,-1,-1,pp_13,icub,clamp,2021_Dec_23_1124,exp,2021.2.3,60.05031032335192,
left,go,2,0,2,0,3,0,18,1,858.9819960594177,None,1,0.23538899421691895,858.9819960594177,None,859.337641954422,None,860.3389360904694,860.685576915741,860.3389360904694,860.685576915741,859.337641954422,None,859.337641954422,None,859.337641954422,None,1,True,455.122709274292,473.9658832550049,left,862.1489999294281,None,-1,-1,pp_13,icub,clamp,2021_Dec_23_1124,exp,2021.2.3,60.05031032335192,
right,go,2,0,2,0,3,1,19,3,862.6621000766754,None,1,0.4061000347137451,862.6621000766754,None,863.2012040615082,None,864.2073159217834,864.5708451271057,864.2073159217834,864.5708451271057,863.2012040615082,None,863.2012040615082,None,863.2012040615082,None,1,True,97.0909595489502,399.05834197998047,right,865.598925113678,None,-1,-1,pp_13,icub,clamp,2021_Dec_23_1124,exp,2021.2.3,60.05031032335192,
right,go,2,0,2,0,3,2,20,3,866.1124811172485,None,1,0.20301294326782227,866.1124811172485,None,866.4091029167175,None,867.4389269351959,867.7846031188965,867.4389269351959,867.7846031188965,866.4091029167175,None,866.4091029167175,None,866.4091029167175,None,0,False,370.74732780456543,380.02729415893555,left,869.0549149513245,None,-1,-1,pp_13,icub,clamp,2021_Dec_23_1124,exp,2021.2.3,60.05031032335192,
left,go,2,0,2,0,3,3,21,1,869.5642371177673,None,1,0.3995070457458496,869.5642371177673,None,870.0443689823151,None,871.0679759979248,871.4249069690704,871.0679759979248,871.4249069690704,870.0443689823151,None,870.0443689823151,None,870.0443689823151,None,0,False,-1.0,-1.0,-1,871.7717909812927,None,,,pp_13,icub,clamp,2021_Dec_23_1124,exp,2021.2.3,60.05031032335192,
left,go,2,0,2,0,3,4,22,0,872.2877070903778,None,1,0.7035150527954102,872.2877070903778,None,873.1187229156494,None,874.1488449573517,874.5085129737854,874.1488449573517,874.5085129737854,873.1187229156494,None,873.1187229156494,None,873.1187229156494,None,1,True,382.98487663269043,397.31717109680176,left,875.8171620368958,None,-1,-1,pp_13,icub,clamp,2021_Dec_23_1124,exp,2021.2.3,60.05031032335192,
left,go,2,0,2,0,3,5,23,1,876.3345429897308,None,1,0.31905317306518555,876.3345429897308,None,876.7530560493469,None,877.7692708969116,878.1291780471802,877.7692708969116,878.1291780471802,876.7530560493469,None,876.7530560493469,None,876.7530560493469,None,1,True,294.51823234558105,367.46668815612793,left,879.3205111026764,None,-1,-1,pp_13,icub,clamp,2021_Dec_23_1124,exp,2021.2.3,60.05031032335192,
right,stop,2,0,2,0,4,0,24,5,879.8529419898987,None,1,0.25830602645874023,879.8529419898987,None,880.211287021637,None,881.2213768959045,881.5729579925537,881.2213768959045,881.5729579925537,880.211287021637,None,880.211287021637,None,880.211287021637,None,0,True,199.67961311340332,317.86489486694336,right,882.6426548957825,None,-650,-550,pp_13,icub,clamp,2021_Dec_23_1124,exp,2021.2.3,60.05031032335192,
left,go,2,0,2,0,4,1,25,0,883.1636741161346,None,1,1.2795450687408447,883.1636741161346,None,884.5711770057678,None,885.5753090381622,885.9260149002075,885.5753090381622,885.9260149002075,884.5711770057678,None,884.5711770057678,None,884.5711770057678,None,1,True,247.9989528656006,322.573184967041,left,887.0327610969543,None,-1,-1,pp_13,icub,clamp,2021_Dec_23_1124,exp,2021.2.3,60.05031032335192,
left,stop,2,0,2,0,4,2,26,2,887.5301549434662,None,1,0.37183499336242676,887.5301549434662,None,888.0110759735107,None,889.0246980190277,889.3693480491638,889.0246980190277,889.3693480491638,888.0110759735107,None,888.0110759735107,None,888.0110759735107,None,0,False,3000.150680541992,-1.0,-1,892.8996849060059,None,,,pp_13,icub,clamp,2021_Dec_23_1124,exp,2021.2.3,60.05031032335192,
left,stop,2,0,2,0,4,3,27,2,893.3963570594788,None,1,0.6588709354400635,893.3963570594788,None,894.1836149692535,None,895.1779520511627,895.529599905014,895.1779520511627,895.529599905014,894.1836149692535,None,894.1836149692535,None,894.1836149692535,None,1,True,340.53635597229004,-1.0,-1,899.4096939563751,None,-650,-600,pp_13,icub,clamp,2021_Dec_23_1124,exp,2021.2.3,60.05031032335192,
right,go,2,0,2,0,4,4,28,4,899.9029610157013,None,1,0.7787940502166748,899.9029610157013,None,900.7635419368744,None,901.7561841011047,902.1088950634003,901.7561841011047,902.1088950634003,900.7635419368744,None,900.7635419368744,None,900.7635419368744,None,0,False,3000.7591247558594,-1.0,-1,905.6379709243774,None,,,pp_13,icub,clamp,2021_Dec_23_1124,exp,2021.2.3,60.05031032335192,
left,stop,2,0,2,0,4,5,29,2,906.1319899559021,None,1,0.9549031257629395,906.1319899559021,None,907.1673390865326,None,908.198529958725,908.5563249588013,908.198529958725,908.5563249588013,907.1673390865326,None,907.1673390865326,None,907.1673390865326,None,0,False,-1.0,-1.0,-1,908.8635959625244,None,,,pp_13,icub,clamp,2021_Dec_23_1124,exp,2021.2.3,60.05031032335192,
left,stop,2,0,2,0,5,0,30,2,909.3802800178528,None,1,1.2641279697418213,909.3802800178528,None,910.7297010421753,None,911.7360060214996,912.0853490829468,911.7360060214996,912.0853490829468,910.7297010421753,None,910.7297010421753,None,910.7297010421753,None,0,True,305.79614639282227,351.9127368927002,left,913.2939949035645,None,-600,-600,pp_13,icub,clamp,2021_Dec_23_1124,exp,2021.2.3,60.05031032335192,
right,stop,2,0,2,0,5,1,31,5,913.8141078948975,None,1,0.5222527980804443,913.8141078948975,None,914.4218280315399,None,915.4167490005493,915.7685699462891,915.4167490005493,915.7685699462891,914.4218280315399,None,914.4218280315399,None,914.4218280315399,None,1,True,314.4218921661377,-1.0,-1,919.6237950325012,None,-650,-600,pp_13,icub,clamp,2021_Dec_23_1124,exp,2021.2.3,60.05031032335192,
right,go,2,0,2,0,5,2,32,4,920.1173169612885,None,1,0.770442008972168,920.1173169612885,None,920.9774680137634,None,921.9902839660645,922.3347918987274,921.9902839660645,922.3347918987274,920.9774680137634,None,920.9774680137634,None,920.9774680137634,None,1,True,57.214975357055664,398.667573928833,right,923.3133981227875,None,-1,-1,pp_13,icub,clamp,2021_Dec_23_1124,exp,2021.2.3,60.05031032335192,
left,go,2,0,2,0,5,3,33,0,923.849328994751,None,1,0.40164804458618164,923.849328994751,None,924.3313601016998,None,925.3512940406799,925.7083849906921,925.3512940406799,925.7083849906921,924.3313601016998,None,924.3313601016998,None,924.3313601016998,None,0,False,1549.0870475769043,-1.0,-1,930.7976500988007,None,-1,-1,pp_13,icub,clamp,2021_Dec_23_1124,exp,2021.2.3,60.05031032335192,
right,stop,2,0,2,0,5,4,34,5,931.2909600734711,None,1,0.48468995094299316,931.2909600734711,None,931.9047329425812,None,932.916111946106,933.2653350830078,932.916111946106,933.2653350830078,931.9047329425812,None,931.9047329425812,None,931.9047329425812,None,1,True,342.7252769470215,-1.0,-1,937.1263310909271,None,-650,-550,pp_13,icub,clamp,2021_Dec_23_1124,exp,2021.2.3,60.05031032335192,
right,stop,2,0,2,0,5,5,35,5,937.6197531223297,None,1,0.579988956451416,937.6197531223297,None,938.2956731319427,None,939.3053870201111,939.6641600131989,939.3053870201111,939.6641600131989,938.2956731319427,None,938.2956731319427,None,938.2956731319427,None,1,True,306.16188049316406,-1.0,-1,943.4950850009918,None,-650,-500,pp_13,icub,clamp,2021_Dec_23_1124,exp,2021.2.3,60.05031032335192,
right,go,2,0,2,0,6,0,36,3,944.0273690223694,None,1,0.6492791175842285,944.0273690223694,None,944.762491941452,None,945.7446210384369,946.097088098526,945.7446210384369,946.097088098526,944.762491941452,None,944.762491941452,None,944.762491941452,None,1,True,350.02827644348145,420.69125175476074,right,947.429358959198,None,-1,-1,pp_13,icub,clamp,2021_Dec_23_1124,exp,2021.2.3,60.05031032335192,
right,stop,2,0,2,0,6,1,37,5,947.9439890384674,None,1,0.37778711318969727,947.9439890384674,None,948.4280290603638,None,949.4543681144714,949.7838408946991,949.4543681144714,949.7838408946991,948.4280290603638,None,948.4280290603638,None,948.4280290603638,None,1,True,291.46599769592285,-1.0,-1,953.5907049179077,None,-650,-450,pp_13,icub,clamp,2021_Dec_23_1124,exp,2021.2.3,60.05031032335192,
right,go,2,0,2,0,6,2,38,3,954.1227719783783,None,1,0.34386205673217773,954.1227719783783,None,954.5497770309448,None,955.5327360630035,955.8786969184875,955.5327360630035,955.8786969184875,954.5497770309448,None,954.5497770309448,None,954.5497770309448,None,1,True,255.5549144744873,522.4959850311279,right,957.2168209552765,None,-1,-1,pp_13,icub,clamp,2021_Dec_23_1124,exp,2021.2.3,60.05031032335192,
left,stop,2,0,2,0,6,3,39,2,957.7305879592896,None,1,0.8384571075439453,957.7305879592896,None,958.7019031047821,None,959.702171087265,960.0547680854797,959.702171087265,960.0547680854797,958.7019031047821,None,958.7019031047821,None,958.7019031047821,None,1,True,241.13035202026367,-1.0,-1,963.82643699646,None,-650,-400,pp_13,icub,clamp,2021_Dec_23_1124,exp,2021.2.3,60.05031032335192,
right,go,2,0,2,0,6,4,40,4,964.3589870929718,None,1,0.6435918807983398,964.3589870929718,None,965.0938320159912,None,966.0757551193237,966.4352331161499,966.0757551193237,966.4352331161499,965.0938320159912,None,965.0938320159912,None,965.0938320159912,None,1,True,380.16223907470703,351.02081298828125,right,967.7263131141663,None,-1,-1,pp_13,icub,clamp,2021_Dec_23_1124,exp,2021.2.3,60.05031032335192,
left,go,2,0,2,0,6,5,41,1,968.237025976181,None,1,0.3992881774902344,968.237025976181,None,968.7217400074005,None,969.7456459999084,970.0871670246124,969.7456459999084,970.0871670246124,968.7217400074005,None,968.7217400074005,None,968.7217400074005,None,0,False,3000.5292892456055,-1.0,-1,973.6094479560852,None,,,pp_13,icub,clamp,2021_Dec_23_1124,exp,2021.2.3,60.05031032335192,
right,go,2,0,2,0,7,0,42,4,974.1035099029541,None,1,0.7965118885040283,974.1035099029541,None,975.0157220363617,None,976.0196630954742,976.355339050293,976.0196630954742,976.355339050293,975.0157220363617,None,975.0157220363617,None,975.0157220363617,None,0,False,-1.0,-1.0,-1,976.8771851062775,None,,,pp_13,icub,clamp,2021_Dec_23_1124,exp,2021.2.3,60.05031032335192,
left,go,2,0,2,0,7,1,43,1,977.390692949295,None,1,2.1762561798095703,977.390692949295,None,979.6671040058136,None,980.657998085022,980.9926171302795,980.657998085022,980.9926171302795,979.6671040058136,None,979.6671040058136,None,979.6671040058136,None,1,True,263.7619972229004,454.9722671508789,left,982.2866349220276,None,-1,-1,pp_13,icub,clamp,2021_Dec_23_1124,exp,2021.2.3,60.05031032335192,
left,go,2,0,2,0,7,2,44,1,982.7996361255646,None,1,0.22721290588378906,982.7996361255646,None,983.1555230617523,None,984.1543819904327,984.5105400085449,984.1543819904327,984.5105400085449,983.1555230617523,None,983.1555230617523,None,983.1555230617523,None,1,True,329.9541473388672,389.98889923095703,left,985.7568809986115,None,-1,-1,pp_13,icub,clamp,2021_Dec_23_1124,exp,2021.2.3,60.05031032335192,
left,stop,2,0,2,0,7,3,45,2,986.2709920406342,None,1,0.36409997940063477,986.2709920406342,None,986.7513589859009,None,987.7467699050903,988.0999279022217,987.7467699050903,988.0999279022217,986.7513589859009,None,986.7513589859009,None,986.7513589859009,None,1,True,93.60337257385254,-1.0,-1,991.7259299755096,None,-600,-400,pp_13,icub,clamp,2021_Dec_23_1124,exp,2021.2.3,60.05031032335192,
left,go,2,0,2,0,7,4,46,0,992.2564699649811,None,1,0.9190998077392578,992.2564699649811,None,993.3017990589142,None,994.2839601039886,994.6545209884644,994.2839601039886,994.6545209884644,993.3017990589142,None,993.3017990589142,None,993.3017990589142,None,0,False,-1.0,-1.0,-1,995.1492900848389,None,,,pp_13,icub,clamp,2021_Dec_23_1124,exp,2021.2.3,60.05031032335192,
right,stop,2,0,2,0,7,5,47,5,995.6663930416107,None,1,2.029508113861084,995.6663930416107,None,997.8077781200409,None,998.802953004837,999.1684830188751,998.802953004837,999.1684830188751,997.8077781200409,None,997.8077781200409,None,997.8077781200409,None,1,True,329.7998905181885,-1.0,-1,1003.020035982132,None,-550,-400,pp_13,icub,clamp,2021_Dec_23_1124,exp,2021.2.3,60.05031032335192,
right,go,2,0,2,0,8,0,48,3,1003.5139639377594,None,1,1.704529047012329,1003.5139639377594,None,1005.299987077713,None,1006.283616065979,1006.6510241031647,1006.283616065979,1006.6510241031647,1005.299987077713,None,1005.299987077713,None,1005.299987077713,None,1,True,197.79682159423828,379.2533874511719,right,1007.7613160610199,None,-1,-1,pp_13,icub,clamp,2021_Dec_23_1124,exp,2021.2.3,60.05031032335192,
left,go,2,0,2,0,8,1,49,0,1008.2833199501038,None,1,0.48432016372680664,1008.2833199501038,None,1008.865592956543,None,1009.8542640209198,1010.1800599098206,1009.8542640209198,1010.1800599098206,1008.865592956543,None,1008.865592956543,None,1008.865592956543,None,1,True,262.603759765625,347.46742248535156,left,1011.3463449478149,None,-1,-1,pp_13,icub,clamp,2021_Dec_23_1124,exp,2021.2.3,60.05031032335192,
right,go,2,0,2,0,8,2,50,3,1011.8635730743408,None,1,0.31426095962524414,1011.8635730743408,None,1012.2605891227722,None,1013.2523550987244,1013.5758800506592,1013.2523550987244,1013.5758800506592,1012.2605891227722,None,1012.2605891227722,None,1012.2605891227722,None,1,True,235.62264442443848,329.15592193603516,right,1014.6915159225464,None,-1,-1,pp_13,icub,clamp,2021_Dec_23_1124,exp,2021.2.3,60.05031032335192,
right,stop,2,0,2,0,8,3,51,5,1015.2169909477234,None,1,0.21883606910705566,1015.2169909477234,None,1015.5111310482025,None,1016.5157790184021,1016.8800859451294,1016.5157790184021,1016.8800859451294,1015.5111310482025,None,1015.5111310482025,None,1015.5111310482025,None,0,True,344.066858291626,353.9459705352783,right,1018.1136519908905,None,-550,-350,pp_13,icub,clamp,2021_Dec_23_1124,exp,2021.2.3,60.05031032335192,
left,stop,2,0,2,0,8,4,52,2,1018.6172859668732,None,1,1.6815581321716309,1018.6172859668732,None,1020.3995609283447,None,1021.4203510284424,1021.777291059494,1021.4203510284424,1021.777291059494,1020.3995609283447,None,1020.3995609283447,None,1020.3995609283447,None,0,False,3000.1168251037598,-1.0,-1,1025.3058919906616,None,,,pp_13,icub,clamp,2021_Dec_23_1124,exp,2021.2.3,60.05031032335192,
left,go,2,0,2,0,8,5,53,0,1025.8368010520935,None,1,0.6323599815368652,1025.8368010520935,None,1026.569407939911,None,1027.6031699180603,1027.968672990799,1027.6031699180603,1027.968672990799,1026.569407939911,None,1026.569407939911,None,1026.569407939911,None,1,True,244.6446418762207,455.1112651824951,left,1029.15953707695,None,-1,-1,pp_13,icub,clamp,2021_Dec_23_1124,exp,2021.2.3,60.05031032335192,
left,go,2,0,2,0,9,0,54,0,1029.680598974228,None,1,0.42031216621398926,1029.680598974228,None,1030.225014925003,None,1031.2485899925232,1031.5921430587769,1031.2485899925232,1031.5921430587769,1030.225014925003,None,1030.225014925003,None,1030.225014925003,None,0,False,-1.0,-1.0,-1,1032.0265839099884,None,,,pp_13,icub,clamp,2021_Dec_23_1124,exp,2021.2.3,60.05031032335192,
left,go,2,0,2,0,9,1,55,1,1032.5390779972076,None,1,0.7067570686340332,1032.5390779972076,None,1033.3314189910889,None,1034.339196920395,1034.7040519714355,1034.339196920395,1034.7040519714355,1033.3314189910889,None,1033.3314189910889,None,1033.3314189910889,None,1,True,209.244966506958,365.8759593963623,left,1035.8167769908905,None,-1,-1,pp_13,icub,clamp,2021_Dec_23_1124,exp,2021.2.3,60.05031032335192,
right,go,2,0,2,0,9,2,56,3,1036.3319289684296,None,1,0.4245150089263916,1036.3319289684296,None,1036.8758099079132,None,1037.880742073059,1038.2169020175934,1037.880742073059,1038.2169020175934,1036.8758099079132,None,1036.8758099079132,None,1036.8758099079132,None,1,True,271.0883617401123,410.51506996154785,right,1039.46657705307,None,-1,-1,pp_13,icub,clamp,2021_Dec_23_1124,exp,2021.2.3,60.05031032335192,
right,go,2,0,2,0,9,3,57,4,1039.974065065384,None,1,0.49280714988708496,1039.974065065384,None,1040.578052997589,None,1041.5754730701447,1041.9306321144104,1041.5754730701447,1041.9306321144104,1040.578052997589,None,1040.578052997589,None,1040.578052997589,None,1,True,256.01983070373535,431.7169189453125,right,1043.1506729125977,None,-1,-1,pp_13,icub,clamp,2021_Dec_23_1124,exp,2021.2.3,60.05031032335192,
right,go,2,0,2,0,9,4,58,4,1043.6545510292053,None,1,0.636864185333252,1043.6545510292053,None,1044.381931066513,None,1045.3941550254822,1045.7521500587463,1045.3941550254822,1045.7521500587463,1044.381931066513,None,1044.381931066513,None,1044.381931066513,None,0,False,-1.0,-1.0,-1,1046.263298034668,None,,,pp_13,icub,clamp,2021_Dec_23_1124,exp,2021.2.3,60.05031032335192,
right,stop,2,0,2,0,9,5,59,5,1046.7767391204834,None,1,1.4861440658569336,1046.7767391204834,None,1048.3433849811554,None,1049.343693971634,1049.7100501060486,1049.343693971634,1049.7100501060486,1048.3433849811554,None,1048.3433849811554,None,1048.3433849811554,None,1,True,181.42461776733398,-1.0,-1,1053.431270122528,None,-550,-400,pp_13,icub,clamp,2021_Dec_23_1124,exp,2021.2.3,60.05031032335192,
left,stop,2,0,2,0,10,0,60,2,1053.9278581142426,None,1,0.8737330436706543,1053.9278581142426,None,1054.9133489131927,None,1055.8993909358978,1056.2517049312592,1055.8993909358978,1056.2517049312592,1054.9133489131927,None,1054.9133489131927,None,1054.9133489131927,None,1,True,225.5563735961914,-1.0,-1,1060.0091450214386,None,-550,-350,pp_13,icub,clamp,2021_Dec_23_1124,exp,2021.2.3,60.05031032335192,
right,stop,2,0,2,0,10,1,61,5,1060.5407409667969,None,1,0.7198641300201416,1060.5407409667969,None,1061.3997781276703,None,1062.3807590007782,1062.7405099868774,1062.3807590007782,1062.7405099868774,1061.3997781276703,None,1061.3997781276703,None,1061.3997781276703,None,1,True,214.85590934753418,-1.0,-1,1066.4903740882874,None,-500,-350,pp_13,icub,clamp,2021_Dec_23_1124,exp,2021.2.3,60.05031032335192,
left,go,2,0,2,0,10,2,62,0,1067.022449016571,None,1,1.1841230392456055,1067.022449016571,None,1068.3154139518738,None,1069.2996640205383,1069.66259598732,1069.2996640205383,1069.66259598732,1068.3154139518738,None,1068.3154139518738,None,1068.3154139518738,None,1,True,200.03533363342285,403.2325744628906,left,1070.798772096634,None,-1,-1,pp_13,icub,clamp,2021_Dec_23_1124,exp,2021.2.3,60.05031032335192,
right,go,2,0,2,0,10,3,63,3,1071.311448097229,None,1,0.5965001583099365,1071.311448097229,None,1072.0359771251678,None,1073.0558280944824,1073.4116370677948,1073.0558280944824,1073.4116370677948,1072.0359771251678,None,1072.0359771251678,None,1072.0359771251678,None,1,True,279.16789054870605,364.3789291381836,right,1074.5875079631805,None,-1,-1,pp_13,icub,clamp,2021_Dec_23_1124,exp,2021.2.3,60.05031032335192,
right,go,2,0,2,0,10,4,64,3,1075.0944619178772,None,1,0.15044713020324707,1075.0944619178772,None,1075.3304691314697,None,1076.3427829742432,1076.6745190620422,1076.3427829742432,1076.6745190620422,1075.3304691314697,None,1075.3304691314697,None,1075.3304691314697,None,1,True,226.08065605163574,393.2833671569824,right,1077.8228271007538,None,-1,-1,pp_13,icub,clamp,2021_Dec_23_1124,exp,2021.2.3,60.05031032335192,
left,go,2,0,2,0,10,5,65,0,1078.3395080566406,None,1,0.29663801193237305,1078.3395080566406,None,1078.7560579776764,None,1079.7712910175323,1080.1213550567627,1079.7712910175323,1080.1213550567627,1078.7560579776764,None,1078.7560579776764,None,1078.7560579776764,None,0,False,3001.026391983032,-1.0,-1,1083.6590960025787,None,,,pp_13,icub,clamp,2021_Dec_23_1124,exp,2021.2.3,60.05031032335192,
left,go,2,0,2,0,11,0,66,0,1084.1862280368805,None,1,0.6579811573028564,1084.1862280368805,None,1084.971909046173,None,1085.9856269359589,1086.3270308971405,1085.9856269359589,1086.3270308971405,1084.971909046173,None,1084.971909046173,None,1084.971909046173,None,1,True,50.367116928100586,421.06032371520996,left,1087.3296201229095,None,-1,-1,pp_13,icub,clamp,2021_Dec_23_1124,exp,2021.2.3,60.05031032335192,
left,go,2,0,2,0,11,1,67,1,1087.8489289283752,None,1,0.2831759452819824,1087.8489289283752,None,1088.2652559280396,None,1089.2705850601196,1089.6166279315948,1089.2705850601196,1089.6166279315948,1088.2652559280396,None,1088.2652559280396,None,1088.2652559280396,None,0,False,-1.0,-1.0,-1,1089.9774780273438,None,,,pp_13,icub,clamp,2021_Dec_23_1124,exp,2021.2.3,60.05031032335192,
left,go,2,0,2,0,11,2,68,0,1090.4834189414978,None,1,0.6767370700836182,1090.4834189414978,None,1091.2630789279938,None,1092.2760210037231,1092.6372990608215,1092.2760210037231,1092.6372990608215,1091.2630789279938,None,1091.2630789279938,None,1091.2630789279938,None,1,True,324.85127449035645,481.22286796569824,left,1093.9639120101929,None,-1,-1,pp_13,icub,clamp,2021_Dec_23_1124,exp,2021.2.3,60.05031032335192,
right,go,2,0,2,0,11,3,69,4,1094.4796121120453,None,1,0.23874688148498535,1094.4796121120453,None,1094.83860206604,None,1095.848002910614,1096.1696400642395,1095.848002910614,1096.1696400642395,1094.83860206604,None,1094.83860206604,None,1094.83860206604,None,1,True,88.77372741699219,376.41143798828125,right,1097.1878819465637,None,-1,-1,pp_13,icub,clamp,2021_Dec_23_1124,exp,2021.2.3,60.05031032335192,
left,stop,2,0,2,0,11,4,70,2,1097.709599018097,None,1,0.28043699264526367,1097.709599018097,None,1098.0655410289764,None,1099.063136100769,1099.4125580787659,1099.063136100769,1099.4125580787659,1098.0655410289764,None,1098.0655410289764,None,1098.0655410289764,None,0,False,3000.800848007202,-1.0,-1,1102.9481279850006,None,,,pp_13,icub,clamp,2021_Dec_23_1124,exp,2021.2.3,60.05031032335192,
left,stop,2,0,2,0,11,5,71,2,1103.472778081894,None,1,0.753411054611206,1103.472778081894,None,1104.3271069526672,None,1105.349282026291,1105.70689702034,1105.349282026291,1105.70689702034,1104.3271069526672,None,1104.3271069526672,None,1104.3271069526672,None,0,False,3000.275135040283,-1.0,-1,1109.2225770950317,None,,,pp_13,icub,clamp,2021_Dec_23_1124,exp,2021.2.3,60.05031032335192,
right,stop,2,0,2,0,12,0,72,5,1109.7554590702057,None,1,2.3088769912719727,1109.7554590702057,None,1112.1554698944092,None,1113.147532939911,1113.5072810649872,1113.147532939911,1113.5072810649872,1112.1554698944092,None,1112.1554698944092,None,1112.1554698944092,None,0,False,3000.925064086914,-1.0,-1,1117.0217280387878,None,,,pp_13,icub,clamp,2021_Dec_23_1124,exp,2021.2.3,60.05031032335192,
left,go,2,0,2,0,12,1,73,1,1117.551705121994,None,1,2.2669339179992676,1117.551705121994,None,1119.9526209831238,None,1120.9153170585632,1121.243952035904,1120.9153170585632,1121.243952035904,1119.9526209831238,None,1119.9526209831238,None,1119.9526209831238,None,1,True,151.1533260345459,446.4387893676758,left,1122.4511289596558,None,-1,-1,pp_13,icub,clamp,2021_Dec_23_1124,exp,2021.2.3,60.05031032335192,
left,stop,2,0,2,0,12,2,74,2,1122.967700958252,None,1,0.4902610778808594,1122.967700958252,None,1123.5732440948486,None,1124.6057970523834,1124.9679520130157,1124.6057970523834,1124.9679520130157,1123.5732440948486,None,1123.5732440948486,None,1123.5732440948486,None,1,True,211.62915229797363,-1.0,-1,1128.6640388965607,None,-500,-300,pp_13,icub,clamp,2021_Dec_23_1124,exp,2021.2.3,60.05031032335192,
left,go,2,0,2,0,12,3,75,1,1129.1962130069733,None,1,0.47849106788635254,1129.1962130069733,None,1129.8099150657654,None,1130.7932600975037,1131.1373779773712,1130.7932600975037,1131.1373779773712,1129.8099150657654,None,1129.8099150657654,None,1129.8099150657654,None,1,True,183.77375602722168,539.8378372192383,left,1132.4371500015259,None,-1,-1,pp_13,icub,clamp,2021_Dec_23_1124,exp,2021.2.3,60.05031032335192,
left,go,2,0,2,0,12,4,76,1,1132.9717481136322,None,1,0.6712930202484131,1132.9717481136322,None,1133.7632780075073,None,1134.7777531147003,1135.144553899765,1134.7777531147003,1135.144553899765,1133.7632780075073,None,1133.7632780075073,None,1133.7632780075073,None,1,True,392.8556442260742,368.9436912536621,left,1136.4298079013824,None,-1,-1,pp_13,icub,clamp,2021_Dec_23_1124,exp,2021.2.3,60.05031032335192,
left,go,2,0,2,0,12,5,77,0,1136.939574956894,None,1,0.37259507179260254,1136.939574956894,None,1137.418189048767,None,1138.4301888942719,1138.7916240692139,1138.4301888942719,1138.7916240692139,1137.418189048767,None,1137.418189048767,None,1137.418189048767,None,1,True,222.83124923706055,379.60052490234375,left,1139.928060054779,None,-1,-1,pp_13,icub,clamp,2021_Dec_23_1124,exp,2021.2.3,60.05031032335192,
left,stop,3,0,3,0,0,0,0,2,1161.115345954895,None,1,11.118309020996094,1161.115345954895,None,1172.3348550796509,None,1173.363774061203,1173.7117640972137,1173.363774061203,1173.7117640972137,1172.3348550796509,None,1172.3348550796509,None,1172.3348550796509,None,0,True,138.1535530090332,367.5198554992676,left,1174.7385458946228,None,-450,-300,pp_13,icub,clamp,2021_Dec_23_1124,exp,2021.2.3,60.05031032335192,
right,stop,3,0,3,0,0,1,1,5,1175.2560169696808,None,1,0.3782041072845459,1175.2560169696808,None,1175.7400920391083,None,1176.7440829277039,1177.1017990112305,1176.7440829277039,1177.1017990112305,1175.7400920391083,None,1175.7400920391083,None,1175.7400920391083,None,1,True,207.86404609680176,-1.0,-1,1180.8425719738007,None,-500,-300,pp_13,icub,clamp,2021_Dec_23_1124,exp,2021.2.3,60.05031032335192,
left,stop,3,0,3,0,0,2,2,2,1181.3362600803375,None,1,0.3277149200439453,1181.3362600803375,None,1181.7635431289673,None,1182.7461020946503,1183.091185092926,1182.7461020946503,1183.091185092926,1181.7635431289673,None,1181.7635431289673,None,1181.7635431289673,None,0,False,3000.410795211792,-1.0,-1,1186.65168094635,None,,,pp_13,icub,clamp,2021_Dec_23_1124,exp,2021.2.3,60.05031032335192,
left,go,3,0,3,0,0,3,3,0,1187.1460599899292,None,1,2.0636677742004395,1187.1460599899292,None,1189.3003220558167,None,1190.3223950862885,1190.6574249267578,1190.3223950862885,1190.6574249267578,1189.3003220558167,None,1189.3003220558167,None,1189.3003220558167,None,1,True,56.014299392700195,482.9387664794922,left,1191.7308208942413,None,-1,-1,pp_13,icub,clamp,2021_Dec_23_1124,exp,2021.2.3,60.05031032335192,
right,go,3,0,3,0,0,4,4,3,1192.2351009845734,None,1,2.553341865539551,1192.2351009845734,None,1194.8837559223175,None,1195.8748219013214,1196.2369561195374,1195.8748219013214,1196.2369561195374,1194.8837559223175,None,1194.8837559223175,None,1194.8837559223175,None,1,True,102.28919982910156,472.52774238586426,right,1197.3389489650726,None,-1,-1,pp_13,icub,clamp,2021_Dec_23_1124,exp,2021.2.3,60.05031032335192,
right,stop,3,0,3,0,0,5,5,5,1197.8744750022888,None,1,0.3942880630493164,1197.8744750022888,None,1198.3592669963837,None,1199.3461611270905,1199.701947927475,1199.3461611270905,1199.701947927475,1198.3592669963837,None,1198.3592669963837,None,1198.3592669963837,None,0,False,-1.0,-1.0,-1,1200.1956460475922,None,,,pp_13,icub,clamp,2021_Dec_23_1124,exp,2021.2.3,60.05031032335192,
left,go,3,0,3,0,1,0,6,0,1200.7112600803375,None,1,0.7101840972900391,1200.7112600803375,None,1201.5280239582062,None,1202.5516819953918,1202.9045960903168,1202.5516819953918,1202.9045960903168,1201.5280239582062,None,1201.5280239582062,None,1201.5280239582062,None,1,True,313.7986660003662,315.95301628112793,left,1204.0588870048523,None,-1,-1,pp_13,icub,clamp,2021_Dec_23_1124,exp,2021.2.3,60.05031032335192,
right,go,3,0,3,0,1,1,7,4,1204.5647361278534,None,1,0.09353399276733398,1204.5647361278534,None,1204.7385981082916,None,1205.745036125183,1206.0944159030914,1205.745036125183,1206.0944159030914,1204.7385981082916,None,1204.7385981082916,None,1204.7385981082916,None,1,True,270.36118507385254,330.2786350250244,right,1207.2434251308441,None,-1,-1,pp_13,icub,clamp,2021_Dec_23_1124,exp,2021.2.3,60.05031032335192,
left,go,3,0,3,0,1,2,8,1,1207.7608580589294,None,1,0.13462591171264648,1207.7608580589294,None,1207.9944961071014,None,1209.024908065796,1209.3848299980164,1209.024908065796,1209.3848299980164,1207.9944961071014,None,1207.9944961071014,None,1207.9944961071014,None,1,True,281.25596046447754,326.4491558074951,left,1210.5130879878998,None,-1,-1,pp_13,icub,clamp,2021_Dec_23_1124,exp,2021.2.3,60.05031032335192,
left,go,3,0,3,0,1,3,9,0,1211.0241770744324,None,1,0.16318202018737793,1211.0241770744324,None,1211.3158769607544,None,1212.3223769664764,1212.666435956955,1212.3223769664764,1212.666435956955,1211.3158769607544,None,1211.3158769607544,None,1211.3158769607544,None,0,False,3000.800132751465,-1.0,-1,1216.2278459072113,None,,,pp_13,icub,clamp,2021_Dec_23_1124,exp,2021.2.3,60.05031032335192,
left,go,3,0,3,0,1,4,10,0,1216.7220480442047,None,1,0.5050079822540283,1216.7220480442047,None,1217.3356120586395,None,1218.317018032074,1218.681384086609,1218.317018032074,1218.681384086609,1217.3356120586395,None,1217.3356120586395,None,1217.3356120586395,None,0,False,-1.0,-1.0,-1,1219.1375648975372,None,,,pp_13,icub,clamp,2021_Dec_23_1124,exp,2021.2.3,60.05031032335192,
left,go,3,0,3,0,1,5,11,0,1219.6445500850677,None,1,0.5020449161529541,1219.6445500850677,None,1220.2478320598602,None,1221.2541680335999,1221.594036102295,1221.2541680335999,1221.594036102295,1220.2478320598602,None,1220.2478320598602,None,1220.2478320598602,None,1,True,330.40809631347656,393.74804496765137,left,1222.8871040344238,None,-1,-1,pp_13,icub,clamp,2021_Dec_23_1124,exp,2021.2.3,60.05031032335192,
left,stop,3,0,3,0,2,0,12,2,1223.4020829200745,None,1,0.39521098136901855,1223.4020829200745,None,1223.8830709457397,None,1224.888396024704,1225.2487289905548,1224.888396024704,1225.2487289905548,1223.8830709457397,None,1223.8830709457397,None,1223.8830709457397,None,1,True,277.2641181945801,-1.0,-1,1229.0502700805664,None,-500,-250,pp_13,icub,clamp,2021_Dec_23_1124,exp,2021.2.3,60.05031032335192,
right,go,3,0,3,0,2,1,13,4,1229.5827469825745,None,1,0.5013449192047119,1229.5827469825745,None,1230.195251941681,None,1231.1808559894562,1231.5336680412292,1231.1808559894562,1231.5336680412292,1230.195251941681,None,1230.195251941681,None,1230.195251941681,None,1,True,131.9420337677002,455.69419860839844,right,1232.6810779571533,None,-1,-1,pp_13,icub,clamp,2021_Dec_23_1124,exp,2021.2.3,60.05031032335192,
