Holder,Action,blocks.thisRepN,blocks.thisTrialN,blocks.thisN,blocks.thisIndex,trials.thisRepN,trials.thisTrialN,trials.thisN,trials.thisIndex,start_msg.started,start_msg.stopped,RespButton_start_trial.keys,RespButton_start_trial.rt,RespButton_start_trial.started,RespButton_start_trial.stopped,GREEN.started,GREEN.stopped,LEFT_RED.started,LEFT_RED.stopped,RIGHT_RED.started,RIGHT_RED.stopped,LEFT_CIRCLE.started,LEFT_CIRCLE.stopped,CENTER_CIRCLE.started,CENTER_CIRCLE.stopped,RIGHT_CIRCLE.started,RIGHT_CIRCLE.stopped,SOUND_DELAY_MS_LEFT,SOUND_DELAY_MS_RIGHT,CORRECT,VALIDITY,RELEASE_TIME,TOUCH_TIME,BOTTLE_RESPONSE_POSITION,text.started,text.stopped,pid,left_position,right_position,date,expName,psychopyVersion,frameRate,
left,go,0,0,0,0,0,0,0,0,45.74594688415527,None,1,13.171056985855103,45.74594688415527,None,59.00479006767273,None,60.027302980422974,60.3551070690155,60.027302980422974,60.3551070690155,59.00479006767273,None,59.00479006767273,None,59.00479006767273,None,-1,-1,1,True,177.59132385253906,368.84307861328125,left,61.43547606468201,None,pp_20,clamp,icub,2022_Jan_10_1029,exp,2021.2.3,60.003404810510844,
left,go,0,0,0,0,0,1,1,1,61.94711494445801,None,1,1.1559789180755615,61.94711494445801,None,63.231191873550415,None,64.24282598495483,64.60093903541565,64.24282598495483,64.60093903541565,63.231191873550415,None,63.231191873550415,None,63.231191873550415,None,-1,-1,1,True,256.67333602905273,440.4475688934326,left,65.83031296730042,None,pp_20,clamp,icub,2022_Jan_10_1029,exp,2021.2.3,60.003404810510844,
left,go,0,0,0,0,0,2,2,0,66.33281087875366,None,1,1.4689791202545166,66.33281087875366,None,67.92574000358582,None,68.91833591461182,69.27358603477478,68.91833591461182,69.27358603477478,67.92574000358582,None,67.92574000358582,None,67.92574000358582,None,-1,-1,1,True,157.60326385498047,522.1471786499023,left,70.48270201683044,None,pp_20,clamp,icub,2022_Jan_10_1029,exp,2021.2.3,60.003404810510844,
left,go,0,0,0,0,0,3,3,0,70.98736691474915,None,1,1.354612112045288,70.98736691474915,None,72.44868588447571,None,73.45856499671936,73.8042221069336,73.45856499671936,73.8042221069336,72.44868588447571,None,72.44868588447571,None,72.44868588447571,None,-1,-1,1,True,186.48719787597656,444.2470073699951,left,74.98850107192993,None,pp_20,clamp,icub,2022_Jan_10_1029,exp,2021.2.3,60.003404810510844,
left,go,0,0,0,0,0,4,4,0,75.50836992263794,None,1,1.713587999343872,75.50836992263794,None,77.34470391273499,None,78.35695910453796,78.71208000183105,78.35695910453796,78.71208000183105,77.34470391273499,None,77.34470391273499,None,77.34470391273499,None,-1,-1,1,True,37.78696060180664,511.72590255737305,left,79.78040194511414,None,pp_20,clamp,icub,2022_Jan_10_1029,exp,2021.2.3,60.003404810510844,
left,go,0,0,0,0,0,5,5,1,80.31196999549866,None,1,1.8180270195007324,80.31196999549866,None,82.21552991867065,None,83.24486994743347,83.59716701507568,83.24486994743347,83.59716701507568,82.21552991867065,None,82.21552991867065,None,82.21552991867065,None,-1,-1,1,True,266.33667945861816,530.0066471099854,left,84.91542792320251,None,pp_20,clamp,icub,2022_Jan_10_1029,exp,2021.2.3,60.003404810510844,
left,stop,0,0,0,0,1,0,6,2,85.44133710861206,None,1,1.2848098278045654,85.44133710861206,None,86.84543800354004,None,87.8728699684143,88.2386839389801,87.8728699684143,88.2386839389801,86.84543800354004,None,86.84543800354004,None,86.84543800354004,None,500,500,0,True,234.69829559326172,484.8291873931885,left,89.44914197921753,None,pp_20,clamp,icub,2022_Jan_10_1029,exp,2021.2.3,60.003404810510844,
left,stop,0,0,0,0,1,1,7,2,89.95586395263672,None,1,1.3640060424804688,89.95586395263672,None,91.42625594139099,None,92.45438408851624,92.8035900592804,92.45438408851624,92.8035900592804,91.42625594139099,None,91.42625594139099,None,91.42625594139099,None,450,500,0,True,244.02284622192383,474.99942779541016,left,94.05024003982544,None,pp_20,clamp,icub,2022_Jan_10_1029,exp,2021.2.3,60.003404810510844,
left,go,0,0,0,0,1,2,8,1,94.5794939994812,None,1,1.0060689449310303,94.5794939994812,None,95.67822599411011,None,96.70392894744873,97.04523992538452,96.70392894744873,97.04523992538452,95.67822599411011,None,95.67822599411011,None,95.67822599411011,None,-1,-1,1,True,265.3071880340576,502.4526119232178,left,98.34584903717041,None,pp_20,clamp,icub,2022_Jan_10_1029,exp,2021.2.3,60.003404810510844,
right,go,0,0,0,0,1,3,9,3,98.86527299880981,None,1,2.1192920207977295,98.86527299880981,None,101.0738890171051,None,102.0946159362793,102.45174407958984,102.0946159362793,102.45174407958984,101.0738890171051,None,101.0738890171051,None,101.0738890171051,None,-1,-1,1,True,212.61978149414062,391.9663429260254,right,103.58675408363342,None,pp_20,clamp,icub,2022_Jan_10_1029,exp,2021.2.3,60.003404810510844,
right,stop,0,0,0,0,1,4,10,5,104.094810962677,None,1,2.5294930934906006,104.094810962677,None,106.73487997055054,None,107.74605107307434,108.0906629562378,107.74605107307434,108.0906629562378,106.73487997055054,None,106.73487997055054,None,106.73487997055054,None,400,500,0,True,262.0995044708252,372.8137016296387,right,109.253093957901,None,pp_20,clamp,icub,2022_Jan_10_1029,exp,2021.2.3,60.003404810510844,
left,go,0,0,0,0,1,5,11,0,109.75410008430481,None,1,1.222733974456787,109.75410008430481,None,111.09623503684998,None,112.11724901199341,112.46702790260315,112.11724901199341,112.46702790260315,111.09623503684998,None,111.09623503684998,None,111.09623503684998,None,-1,-1,1,True,252.98714637756348,442.7604675292969,left,113.69934391975403,None,pp_20,clamp,icub,2022_Jan_10_1029,exp,2021.2.3,60.003404810510844,
left,go,0,0,0,0,2,0,12,1,114.2227029800415,None,1,1.3787992000579834,114.2227029800415,None,115.6921079158783,None,116.71330690383911,117.06572794914246,116.71330690383911,117.06572794914246,115.6921079158783,None,115.6921079158783,None,115.6921079158783,None,-1,-1,1,True,382.8623294830322,378.70287895202637,left,118.35269594192505,None,pp_20,clamp,icub,2022_Jan_10_1029,exp,2021.2.3,60.003404810510844,
left,go,0,0,0,0,2,1,13,1,118.87212610244751,None,1,1.3737938404083252,118.87212610244751,None,120.34160590171814,None,121.36851000785828,121.72127795219421,121.36851000785828,121.72127795219421,120.34160590171814,None,120.34160590171814,None,120.34160590171814,None,-1,-1,1,True,196.46596908569336,546.6547012329102,left,122.99245810508728,None,pp_20,clamp,icub,2022_Jan_10_1029,exp,2021.2.3,60.003404810510844,
right,stop,0,0,0,0,2,2,14,5,123.51071190834045,None,1,1.5642468929290771,123.51071190834045,None,125.16460490226746,None,126.15614700317383,126.51286697387695,126.15614700317383,126.51286697387695,125.16460490226746,None,125.16460490226746,None,125.16460490226746,None,400,450,0,True,222.79000282287598,412.2276306152344,right,127.68457889556885,None,pp_20,clamp,icub,2022_Jan_10_1029,exp,2021.2.3,60.003404810510844,
left,stop,0,0,0,0,2,3,15,2,128.2057499885559,None,1,1.0744209289550781,128.2057499885559,None,129.4041349887848,None,130.41313290596008,130.76530694961548,130.41313290596008,130.76530694961548,129.4041349887848,None,129.4041349887848,None,129.4041349887848,None,400,400,0,True,333.47415924072266,530.5190086364746,left,132.16101789474487,None,pp_20,clamp,icub,2022_Jan_10_1029,exp,2021.2.3,60.003404810510844,
right,stop,0,0,0,0,2,4,16,5,132.6921980381012,None,1,1.693004846572876,132.6921980381012,None,134.4709038734436,None,135.46446108818054,135.81822896003723,135.46446108818054,135.81822896003723,134.4709038734436,None,134.4709038734436,None,134.4709038734436,None,350,400,0,True,143.9225673675537,403.46813201904297,right,136.89512300491333,None,pp_20,clamp,icub,2022_Jan_10_1029,exp,2021.2.3,60.003404810510844,
left,stop,0,0,0,0,2,5,17,2,137.42356300354004,None,1,1.2275731563568115,137.42356300354004,None,138.77025508880615,None,139.77276992797852,140.13450694084167,139.77276992797852,140.13450694084167,138.77025508880615,None,138.77025508880615,None,138.77025508880615,None,350,350,0,True,196.52128219604492,416.6879653930664,left,141.27225399017334,None,pp_20,clamp,icub,2022_Jan_10_1029,exp,2021.2.3,60.003404810510844,
right,go,0,0,0,0,3,0,18,4,141.77774810791016,None,1,1.364069938659668,141.77774810791016,None,143.24648690223694,None,144.24425101280212,144.6036319732666,144.24425101280212,144.6036319732666,143.24648690223694,None,143.24648690223694,None,143.24648690223694,None,-1,-1,1,True,166.0783290863037,399.320125579834,right,145.70730900764465,None,pp_20,clamp,icub,2022_Jan_10_1029,exp,2021.2.3,60.003404810510844,
left,stop,0,0,0,0,3,1,19,2,146.21471309661865,None,1,2.893568992614746,146.21471309661865,None,149.22684788703918,None,150.22499203681946,150.57233309745789,150.22499203681946,150.57233309745789,149.22684788703918,None,149.22684788703918,None,149.22684788703918,None,300,350,0,True,243.5009479522705,425.4741668701172,left,151.77666401863098,None,pp_20,clamp,icub,2022_Jan_10_1029,exp,2021.2.3,60.003404810510844,
right,go,0,0,0,0,3,2,20,3,152.29138898849487,None,1,1.2189249992370605,152.29138898849487,None,153.6332139968872,None,154.6400671005249,155.00150299072266,154.6400671005249,155.00150299072266,153.6332139968872,None,153.6332139968872,None,153.6332139968872,None,-1,-1,1,True,255.78927993774414,411.18478775024414,right,156.2005569934845,None,pp_20,clamp,icub,2022_Jan_10_1029,exp,2021.2.3,60.003404810510844,
right,stop,0,0,0,0,3,3,21,5,156.7094280719757,None,1,1.3346600532531738,156.7094280719757,None,158.11960697174072,None,159.12913703918457,159.48584699630737,159.12913703918457,159.48584699630737,158.11960697174072,None,158.11960697174072,None,158.11960697174072,None,250,350,0,True,249.7100830078125,363.4917736053467,right,160.60838389396667,None,pp_20,clamp,icub,2022_Jan_10_1029,exp,2021.2.3,60.003404810510844,
right,go,0,0,0,0,3,4,22,4,161.12402606010437,None,1,0.9418909549713135,161.12402606010437,None,162.19879508018494,None,163.1982181072235,163.55344796180725,163.1982181072235,163.55344796180725,162.19879508018494,None,162.19879508018494,None,162.19879508018494,None,-1,-1,1,True,269.72055435180664,396.65722846984863,right,164.74888610839844,None,pp_20,clamp,icub,2022_Jan_10_1029,exp,2021.2.3,60.003404810510844,
right,stop,0,0,0,0,3,5,23,5,165.2595009803772,None,1,1.3282549381256104,165.2595009803772,None,166.66820001602173,None,167.67688393592834,168.03323101997375,167.67688393592834,168.03323101997375,166.66820001602173,None,166.66820001602173,None,166.66820001602173,None,250,300,0,True,220.94035148620605,411.93127632141113,right,169.1940610408783,None,pp_20,clamp,icub,2022_Jan_10_1029,exp,2021.2.3,60.003404810510844,
left,go,0,0,0,0,4,0,24,0,169.7033200263977,None,1,1.0747358798980713,169.7033200263977,None,170.8584349155426,None,171.8536388874054,172.18002104759216,171.8536388874054,172.18002104759216,170.8584349155426,None,170.8584349155426,None,170.8584349155426,None,-1,-1,1,True,308.9599609375,452.2695541381836,left,173.51328992843628,None,pp_20,clamp,icub,2022_Jan_10_1029,exp,2021.2.3,60.003404810510844,
right,go,0,0,0,0,4,1,25,4,174.00750494003296,None,1,1.4961411952972412,174.00750494003296,None,175.60314297676086,None,176.6297791004181,176.97469210624695,176.6297791004181,176.97469210624695,175.60314297676086,None,175.60314297676086,None,175.60314297676086,None,-1,-1,1,True,308.6879253387451,389.6818161010742,right,178.201504945755,None,pp_20,clamp,icub,2022_Jan_10_1029,exp,2021.2.3,60.003404810510844,
right,go,0,0,0,0,4,2,26,4,178.71805906295776,None,1,1.6627840995788574,178.71805906295776,None,180.46638989448547,None,181.47738599777222,181.81415510177612,181.47738599777222,181.81415510177612,180.46638989448547,None,180.46638989448547,None,180.46638989448547,None,-1,-1,1,True,269.21868324279785,397.14860916137695,right,183.0052490234375,None,pp_20,clamp,icub,2022_Jan_10_1029,exp,2021.2.3,60.003404810510844,
right,go,0,0,0,0,4,3,27,3,183.52210092544556,None,1,1.2350490093231201,183.52210092544556,None,184.84500098228455,None,185.85355496406555,186.20525789260864,185.85355496406555,186.20525789260864,184.84500098228455,None,184.84500098228455,None,184.84500098228455,None,-1,-1,1,True,390.66243171691895,301.82814598083496,right,187.4295470714569,None,pp_20,clamp,icub,2022_Jan_10_1029,exp,2021.2.3,60.003404810510844,
right,stop,0,0,0,0,4,4,28,5,187.9480381011963,None,1,1.0207850933074951,187.9480381011963,None,189.0491499900818,None,190.03642797470093,190.39486002922058,190.03642797470093,190.39486002922058,189.0491499900818,None,189.0491499900818,None,189.0491499900818,None,250,250,0,True,243.74914169311523,437.9093647003174,right,191.60779190063477,None,pp_20,clamp,icub,2022_Jan_10_1029,exp,2021.2.3,60.003404810510844,
right,go,0,0,0,0,4,5,29,4,192.12363696098328,None,1,1.007174015045166,192.12363696098328,None,193.21949887275696,None,194.2211639881134,194.58110690116882,194.2211639881134,194.58110690116882,193.21949887275696,None,193.21949887275696,None,193.21949887275696,None,-1,-1,1,True,282.87720680236816,366.6112422943115,right,195.75817108154297,None,pp_20,clamp,icub,2022_Jan_10_1029,exp,2021.2.3,60.003404810510844,
right,go,0,0,0,0,5,0,30,3,196.286288022995,None,1,1.3283212184906006,196.286288022995,None,197.69516587257385,None,198.71889996528625,199.0661370754242,198.71889996528625,199.0661370754242,197.69516587257385,None,197.69516587257385,None,197.69516587257385,None,-1,-1,1,True,271.29149436950684,436.05709075927734,right,200.30033802986145,None,pp_20,clamp,icub,2022_Jan_10_1029,exp,2021.2.3,60.003404810510844,
left,stop,0,0,0,0,5,1,31,2,200.81831002235413,None,1,0.9755458831787109,200.81831002235413,None,201.88800191879272,None,202.8931200504303,203.23563694953918,202.8931200504303,203.23563694953918,201.88800191879272,None,201.88800191879272,None,201.88800191879272,None,250,200,0,True,225.43001174926758,422.4421977996826,left,204.4149398803711,None,pp_20,clamp,icub,2022_Jan_10_1029,exp,2021.2.3,60.003404810510844,
left,go,0,0,0,0,5,2,32,1,204.9344620704651,None,1,1.7661988735198975,204.9344620704651,None,206.8333330154419,None,207.82686805725098,208.1807770729065,207.82686805725098,208.1807770729065,206.8333330154419,None,206.8333330154419,None,206.8333330154419,None,-1,-1,1,True,233.34455490112305,388.9286518096924,left,209.34044909477234,None,pp_20,clamp,icub,2022_Jan_10_1029,exp,2021.2.3,60.003404810510844,
left,go,0,0,0,0,5,3,33,1,209.8532590866089,None,1,1.2883780002593994,209.8532590866089,None,211.260183095932,None,212.29455494880676,212.6466031074524,212.29455494880676,212.6466031074524,211.260183095932,None,211.260183095932,None,211.260183095932,None,-1,-1,1,True,237.87236213684082,379.3025016784668,left,213.74790692329407,None,pp_20,clamp,icub,2022_Jan_10_1029,exp,2021.2.3,60.003404810510844,
left,go,0,0,0,0,5,4,34,0,214.26184391975403,None,1,0.8610141277313232,214.26184391975403,None,215.23849892616272,None,216.2296600341797,216.5825319290161,216.2296600341797,216.5825319290161,215.23849892616272,None,215.23849892616272,None,215.23849892616272,None,-1,-1,1,True,238.80553245544434,367.89846420288086,left,217.75308394432068,None,pp_20,clamp,icub,2022_Jan_10_1029,exp,2021.2.3,60.003404810510844,
left,stop,0,0,0,0,5,5,35,2,218.2614688873291,None,1,0.9652109146118164,218.2614688873291,None,219.355299949646,None,220.3652698993683,220.7209620475769,220.3652698993683,220.7209620475769,219.355299949646,None,219.355299949646,None,219.355299949646,None,200,200,0,True,245.6676959991455,376.617431640625,left,221.87319707870483,None,pp_20,clamp,icub,2022_Jan_10_1029,exp,2021.2.3,60.003404810510844,
left,go,0,0,0,0,6,0,36,0,222.38420295715332,None,1,0.8461990356445312,222.38420295715332,None,223.35871005058289,None,224.3700680732727,224.71719598770142,224.3700680732727,224.71719598770142,223.35871005058289,None,223.35871005058289,None,223.35871005058289,None,-1,-1,1,True,287.83464431762695,414.5169258117676,left,225.95303606987,None,pp_20,clamp,icub,2022_Jan_10_1029,exp,2021.2.3,60.003404810510844,
right,go,0,0,0,0,6,1,37,3,226.45508790016174,None,1,1.4815781116485596,226.45508790016174,None,228.04183101654053,None,229.0552179813385,229.4047749042511,229.0552179813385,229.4047749042511,228.04183101654053,None,228.04183101654053,None,228.04183101654053,None,-1,-1,1,True,155.61985969543457,389.30487632751465,right,230.4660930633545,None,pp_20,clamp,icub,2022_Jan_10_1029,exp,2021.2.3,60.003404810510844,
right,stop,0,0,0,0,6,2,38,5,230.97495698928833,None,1,1.1698429584503174,230.97495698928833,None,232.26000809669495,None,233.26259398460388,233.61002898216248,233.26259398460388,233.61002898216248,232.26000809669495,None,232.26000809669495,None,232.26000809669495,None,150,200,0,True,215.1169776916504,340.4839038848877,right,234.70322799682617,None,pp_20,clamp,icub,2022_Jan_10_1029,exp,2021.2.3,60.003404810510844,
left,go,0,0,0,0,6,3,39,0,235.2008888721466,None,1,1.200551986694336,235.2008888721466,None,236.48555302619934,None,237.49688696861267,237.84919691085815,237.49688696861267,237.84919691085815,236.48555302619934,None,236.48555302619934,None,236.48555302619934,None,-1,-1,1,True,258.2371234893799,343.7180519104004,left,238.98158502578735,None,pp_20,clamp,icub,2022_Jan_10_1029,exp,2021.2.3,60.003404810510844,
right,stop,0,0,0,0,6,4,40,5,239.48144793510437,None,1,1.123443841934204,239.48144793510437,None,240.6981339454651,None,241.70195889472961,242.0586280822754,241.70195889472961,242.0586280822754,240.6981339454651,None,240.6981339454651,None,240.6981339454651,None,150,150,0,True,222.88179397583008,331.88486099243164,right,243.13484406471252,None,pp_20,clamp,icub,2022_Jan_10_1029,exp,2021.2.3,60.003404810510844,
left,go,0,0,0,0,6,5,41,0,243.65859508514404,None,1,1.5500268936157227,243.65859508514404,None,245.31385707855225,None,246.32880401611328,246.69586610794067,246.32880401611328,246.69586610794067,245.31385707855225,None,245.31385707855225,None,245.31385707855225,None,,,0,False,3001.0900497436523,-1.0,-1,250.22597289085388,None,pp_20,clamp,icub,2022_Jan_10_1029,exp,2021.2.3,60.003404810510844,
right,stop,0,0,0,0,7,0,42,5,250.7570788860321,None,1,1.0905940532684326,250.7570788860321,None,251.97561287879944,None,253.00032687187195,253.36166310310364,253.00032687187195,253.36166310310364,251.97561287879944,None,251.97561287879944,None,251.97561287879944,None,150,100,0,True,297.32251167297363,385.1187229156494,right,254.53599095344543,None,pp_20,clamp,icub,2022_Jan_10_1029,exp,2021.2.3,60.003404810510844,
right,go,0,0,0,0,7,1,43,4,255.0525450706482,None,1,0.7290809154510498,255.0525450706482,None,255.90538501739502,None,256.92149806022644,257.2733910083771,256.92149806022644,257.2733910083771,255.90538501739502,None,255.90538501739502,None,255.90538501739502,None,-1,-1,1,True,236.7868423461914,366.57047271728516,right,258.4111878871918,None,pp_20,clamp,icub,2022_Jan_10_1029,exp,2021.2.3,60.003404810510844,
left,stop,0,0,0,0,7,2,44,2,258.9186210632324,None,1,1.6315639019012451,258.9186210632324,None,260.6360559463501,None,261.63680601119995,261.968887090683,261.63680601119995,261.968887090683,260.6360559463501,None,260.6360559463501,None,260.6360559463501,None,150,50,0,True,248.32773208618164,383.6519718170166,left,263.18076395988464,None,pp_20,clamp,icub,2022_Jan_10_1029,exp,2021.2.3,60.003404810510844,
left,go,0,0,0,0,7,3,45,1,263.6955099105835,None,1,0.8338840007781982,263.6955099105835,None,264.66727590560913,None,265.69241094589233,266.0497028827667,265.69241094589233,266.0497028827667,264.66727590560913,None,264.66727590560913,None,264.66727590560913,None,-1,-1,1,True,428.36523056030273,409.3775749206543,left,267.3838450908661,None,pp_20,clamp,icub,2022_Jan_10_1029,exp,2021.2.3,60.003404810510844,
left,go,0,0,0,0,7,4,46,1,267.8897240161896,None,1,1.0587170124053955,267.8897240161896,None,269.0501310825348,None,270.07632994651794,270.42533802986145,270.07632994651794,270.42533802986145,269.0501310825348,None,269.0501310825348,None,269.0501310825348,None,-1,-1,1,True,216.6917324066162,416.8996810913086,left,271.57501792907715,None,pp_20,clamp,icub,2022_Jan_10_1029,exp,2021.2.3,60.003404810510844,
right,go,0,0,0,0,7,5,47,3,272.0822150707245,None,1,1.210176944732666,272.0822150707245,None,273.4249119758606,None,274.4448208808899,274.80305790901184,274.4448208808899,274.80305790901184,273.4249119758606,None,273.4249119758606,None,273.4249119758606,None,-1,-1,1,True,256.5124034881592,400.5138874053955,right,275.9823999404907,None,pp_20,clamp,icub,2022_Jan_10_1029,exp,2021.2.3,60.003404810510844,
right,go,0,0,0,0,8,0,48,4,276.51507091522217,None,1,1.176271915435791,276.51507091522217,None,277.8046169281006,None,278.7995009422302,279.1563630104065,278.7995009422302,279.1563630104065,277.8046169281006,None,277.8046169281006,None,277.8046169281006,None,-1,-1,1,True,253.1421184539795,390.4876708984375,right,280.32477498054504,None,pp_20,clamp,icub,2022_Jan_10_1029,exp,2021.2.3,60.003404810510844,
left,go,0,0,0,0,8,1,49,0,280.8276090621948,None,1,1.1556880474090576,280.8276090621948,None,282.1112289428711,None,283.1121549606323,283.4575779438019,283.1121549606323,283.4575779438019,282.1112289428711,None,282.1112289428711,None,282.1112289428711,None,-1,-1,1,True,274.56188201904297,453.39035987854004,left,284.74280309677124,None,pp_20,clamp,icub,2022_Jan_10_1029,exp,2021.2.3,60.003404810510844,
right,go,0,0,0,0,8,2,50,4,285.25951290130615,None,1,0.8802468776702881,285.25951290130615,None,286.2336039543152,None,287.23611402511597,287.59957695007324,287.23611402511597,287.59957695007324,286.2336039543152,None,286.2336039543152,None,286.2336039543152,None,-1,-1,1,True,310.5640411376953,385.03241539001465,right,288.81193494796753,None,pp_20,clamp,icub,2022_Jan_10_1029,exp,2021.2.3,60.003404810510844,
right,stop,0,0,0,0,8,3,51,5,289.3317470550537,None,1,1.035660982131958,289.3317470550537,None,290.4917800426483,None,291.4955909252167,291.85224199295044,291.4955909252167,291.85224199295044,290.4917800426483,None,290.4917800426483,None,290.4917800426483,None,100,50,0,True,368.73531341552734,384.3050003051758,right,293.1421980857849,None,pp_20,clamp,icub,2022_Jan_10_1029,exp,2021.2.3,60.003404810510844,
right,stop,0,0,0,0,8,4,52,5,293.6650550365448,None,1,0.5843780040740967,293.6650550365448,None,294.3301610946655,None,295.3560800552368,295.7095069885254,295.3560800552368,295.7095069885254,294.3301610946655,None,294.3301610946655,None,294.3301610946655,None,100,0,0,True,336.061954498291,384.60803031921387,right,296.955060005188,None,pp_20,clamp,icub,2022_Jan_10_1029,exp,2021.2.3,60.003404810510844,
left,stop,0,0,0,0,8,5,53,2,297.46147990226746,None,1,0.6668767929077148,297.46147990226746,None,298.2527060508728,None,299.27170300483704,299.63555693626404,299.27170300483704,299.63555693626404,298.2527060508728,None,298.2527060508728,None,298.2527060508728,None,100,-50,0,True,443.82643699645996,449.76091384887695,left,301.0476920604706,None,pp_20,clamp,icub,2022_Jan_10_1029,exp,2021.2.3,60.003404810510844,
right,go,0,0,0,0,9,0,54,4,301.57009506225586,None,1,1.0985000133514404,301.57009506225586,None,302.7925229072571,None,303.79035902023315,304.1412510871887,303.79035902023315,304.1412510871887,302.7925229072571,None,302.7925229072571,None,302.7925229072571,None,-1,-1,1,True,304.20732498168945,381.47902488708496,right,305.3900969028473,None,pp_20,clamp,icub,2022_Jan_10_1029,exp,2021.2.3,60.003404810510844,
left,go,0,0,0,0,9,1,55,1,305.90851497650146,None,1,1.2356770038604736,305.90851497650146,None,307.25464391708374,None,308.2772240638733,308.6316440105438,308.2772240638733,308.6316440105438,307.25464391708374,None,307.25464391708374,None,307.25464391708374,None,-1,-1,1,True,308.9137077331543,449.9359130859375,left,309.90806794166565,None,pp_20,clamp,icub,2022_Jan_10_1029,exp,2021.2.3,60.003404810510844,
right,go,0,0,0,0,9,2,56,4,310.42445492744446,None,1,0.9646029472351074,310.42445492744446,None,311.51201009750366,None,312.51244592666626,312.8647119998932,312.51244592666626,312.8647119998932,311.51201009750366,None,311.51201009750366,None,311.51201009750366,None,-1,-1,1,True,337.13817596435547,382.68256187438965,right,314.11698508262634,None,pp_20,clamp,icub,2022_Jan_10_1029,exp,2021.2.3,60.003404810510844,
left,go,0,0,0,0,9,3,57,1,314.6245141029358,None,1,1.6817409992218018,314.6245141029358,None,316.4073579311371,None,317.40636587142944,317.74972009658813,317.40636587142944,317.74972009658813,316.4073579311371,None,316.4073579311371,None,316.4073579311371,None,-1,-1,1,True,286.74888610839844,423.6645698547363,left,319.02508187294006,None,pp_20,clamp,icub,2022_Jan_10_1029,exp,2021.2.3,60.003404810510844,
right,go,0,0,0,0,9,4,58,3,319.5433828830719,None,1,0.8438899517059326,319.5433828830719,None,320.51562905311584,None,321.5261969566345,321.87410497665405,321.5261969566345,321.87410497665405,320.51562905311584,None,320.51562905311584,None,320.51562905311584,None,-1,-1,1,True,321.7148780822754,481.9984436035156,right,323.2112970352173,None,pp_20,clamp,icub,2022_Jan_10_1029,exp,2021.2.3,60.003404810510844,
right,go,0,0,0,0,9,5,59,4,323.73083305358887,None,1,0.8385848999023438,323.73083305358887,None,324.70196199417114,None,325.7009959220886,326.0676300525665,325.7009959220886,326.0676300525665,324.70196199417114,None,324.70196199417114,None,324.70196199417114,None,-1,-1,1,True,359.9421977996826,558.6779117584229,right,327.5009009838104,None,pp_20,clamp,icub,2022_Jan_10_1029,exp,2021.2.3,60.003404810510844,
left,stop,0,0,0,0,10,0,60,2,328.02650904655457,None,1,1.2928051948547363,328.02650904655457,None,329.4350759983063,None,330.44390296936035,330.7992310523987,330.44390296936035,330.7992310523987,329.4350759983063,None,329.4350759983063,None,329.4350759983063,None,50,-50,0,True,398.7119197845459,550.2138137817383,left,332.28750705718994,None,pp_20,clamp,icub,2022_Jan_10_1029,exp,2021.2.3,60.003404810510844,
left,go,0,0,0,0,10,1,61,0,332.79428601264954,None,1,1.0929410457611084,332.79428601264954,None,334.0158910751343,None,335.0498878955841,335.4180419445038,335.0498878955841,335.4180419445038,334.0158910751343,None,334.0158910751343,None,334.0158910751343,None,-1,-1,1,True,445.265531539917,524.3301391601562,left,336.880047082901,None,pp_20,clamp,icub,2022_Jan_10_1029,exp,2021.2.3,60.003404810510844,
right,go,0,0,0,0,10,2,62,4,337.4052400588989,None,1,0.8911819458007812,337.4052400588989,None,338.38183093070984,None,339.38668990135193,339.7307860851288,339.38668990135193,339.7307860851288,338.38183093070984,None,338.38183093070984,None,338.38183093070984,None,-1,-1,1,True,440.0181770324707,404.51717376708984,right,341.1061460971832,None,pp_20,clamp,icub,2022_Jan_10_1029,exp,2021.2.3,60.003404810510844,
right,go,0,0,0,0,10,3,63,3,341.6251690387726,None,1,1.081035852432251,341.6251690387726,None,342.8436689376831,None,343.8783130645752,344.242623090744,343.8783130645752,344.242623090744,342.8436689376831,None,342.8436689376831,None,342.8436689376831,None,-1,-1,1,True,334.32960510253906,500.2470016479492,right,345.55403089523315,None,pp_20,clamp,icub,2022_Jan_10_1029,exp,2021.2.3,60.003404810510844,
right,stop,0,0,0,0,10,4,64,5,346.08404994010925,None,1,1.0714199542999268,346.08404994010925,None,347.24593210220337,None,348.259712934494,348.611869096756,348.259712934494,348.611869096756,347.24593210220337,None,347.24593210220337,None,347.24593210220337,None,0,-50,0,True,429.39209938049316,567.5652027130127,right,350.1467878818512,None,pp_20,clamp,icub,2022_Jan_10_1029,exp,2021.2.3,60.003404810510844,
right,go,0,0,0,0,10,5,65,3,350.6739239692688,None,1,0.9275660514831543,350.6739239692688,None,351.7105679512024,None,352.7136080265045,353.037358045578,352.7136080265045,353.037358045578,351.7105679512024,None,351.7105679512024,None,351.7105679512024,None,-1,-1,1,True,246.08516693115234,587.5890254974365,right,354.4496591091156,None,pp_20,clamp,icub,2022_Jan_10_1029,exp,2021.2.3,60.003404810510844,
right,go,0,0,0,0,11,0,66,3,354.9579200744629,None,1,1.3444099426269531,354.9579200744629,None,356.4268388748169,None,357.45041608810425,357.7950279712677,357.45041608810425,357.7950279712677,356.4268388748169,None,356.4268388748169,None,356.4268388748169,None,-1,-1,1,True,335.86621284484863,511.28172874450684,right,359.1711540222168,None,pp_20,clamp,icub,2022_Jan_10_1029,exp,2021.2.3,60.003404810510844,
left,stop,0,0,0,0,11,1,67,2,359.6844608783722,None,1,1.1489858627319336,359.6844608783722,None,360.96668100357056,None,361.9823110103607,362.3304090499878,361.9823110103607,362.3304090499878,360.96668100357056,None,360.96668100357056,None,360.96668100357056,None,0,-100,0,True,328.782320022583,499.0091323852539,left,363.6771569252014,None,pp_20,clamp,icub,2022_Jan_10_1029,exp,2021.2.3,60.003404810510844,
left,stop,0,0,0,0,11,2,68,2,364.18745708465576,None,1,0.9177989959716797,364.18745708465576,None,365.21838998794556,None,366.245423078537,366.5958559513092,366.245423078537,366.5958559513092,365.21838998794556,None,365.21838998794556,None,365.21838998794556,None,-50,-100,0,True,328.9074897766113,562.8814697265625,left,368.0135130882263,None,pp_20,clamp,icub,2022_Jan_10_1029,exp,2021.2.3,60.003404810510844,
right,go,0,0,0,0,11,3,69,3,368.53352999687195,None,1,0.6557159423828125,368.53352999687195,None,369.3172860145569,None,370.3167130947113,370.67041087150574,370.3167130947113,370.67041087150574,369.3172860145569,None,369.3172860145569,None,369.3172860145569,None,-1,-1,1,True,364.3481731414795,463.0732536315918,right,372.05278491973877,None,pp_20,clamp,icub,2022_Jan_10_1029,exp,2021.2.3,60.003404810510844,
left,stop,0,0,0,0,11,4,70,2,372.57603192329407,None,1,0.9133598804473877,372.57603192329407,None,373.6139769554138,None,374.6272349357605,374.96414399147034,374.6272349357605,374.96414399147034,373.6139769554138,None,373.6139769554138,None,373.6139769554138,None,-100,-100,0,True,353.8382053375244,464.1683101654053,left,376.3194990158081,None,pp_20,clamp,icub,2022_Jan_10_1029,exp,2021.2.3,60.003404810510844,
right,go,0,0,0,0,11,5,71,3,376.85185194015503,None,1,0.6955561637878418,376.85185194015503,None,377.6425609588623,None,378.6687099933624,379.0247690677643,378.6687099933624,379.0247690677643,377.6425609588623,None,377.6425609588623,None,377.6425609588623,None,-1,-1,1,True,434.5965385437012,526.3962745666504,right,380.5170168876648,None,pp_20,clamp,icub,2022_Jan_10_1029,exp,2021.2.3,60.003404810510844,
right,stop,0,0,0,0,12,0,72,5,381.0273759365082,None,1,0.7759580612182617,381.0273759365082,None,381.93650102615356,None,382.93083906173706,383.2794020175934,382.93083906173706,383.2794020175934,381.93650102615356,None,381.93650102615356,None,381.93650102615356,None,-150,-100,0,True,303.8463592529297,547.7921962738037,right,384.6677670478821,None,pp_20,clamp,icub,2022_Jan_10_1029,exp,2021.2.3,60.003404810510844,
left,go,0,0,0,0,12,1,73,1,385.1895899772644,None,1,0.5646970272064209,385.1895899772644,None,385.8559019565582,None,386.86895203590393,387.1982560157776,386.86895203590393,387.1982560157776,385.8559019565582,None,385.8559019565582,None,385.8559019565582,None,-1,-1,1,True,382.98487663269043,496.45090103149414,left,388.63780999183655,None,pp_20,clamp,icub,2022_Jan_10_1029,exp,2021.2.3,60.003404810510844,
left,go,0,0,0,0,12,2,74,1,389.1662199497223,None,1,0.6130211353302002,389.1662199497223,None,389.89391803741455,None,390.9156758785248,391.28055000305176,390.9156758785248,391.28055000305176,389.89391803741455,None,389.89391803741455,None,389.89391803741455,None,-1,-1,1,True,363.5110855102539,566.3366317749023,left,392.73081707954407,None,pp_20,clamp,icub,2022_Jan_10_1029,exp,2021.2.3,60.003404810510844,
left,go,0,0,0,0,12,3,75,0,393.2340009212494,None,1,0.8189129829406738,393.2340009212494,None,394.1457738876343,None,395.17737007141113,395.52052903175354,395.17737007141113,395.52052903175354,394.1457738876343,None,394.1457738876343,None,394.1457738876343,None,-1,-1,1,True,356.22453689575195,571.4590549468994,left,396.96144008636475,None,pp_20,clamp,icub,2022_Jan_10_1029,exp,2021.2.3,60.003404810510844,
right,go,0,0,0,0,12,4,76,4,397.477667093277,None,1,0.9634339809417725,397.477667093277,None,398.57398796081543,None,399.5710759162903,399.9223749637604,399.5710759162903,399.9223749637604,398.57398796081543,None,398.57398796081543,None,398.57398796081543,None,-1,-1,1,True,259.9813938140869,559.8833560943604,right,401.26958990097046,None,pp_20,clamp,icub,2022_Jan_10_1029,exp,2021.2.3,60.003404810510844,
right,go,0,0,0,0,12,5,77,3,401.8039219379425,None,1,0.7960550785064697,401.8039219379425,None,402.71527791023254,None,403.7443780899048,404.0985460281372,403.7443780899048,404.0985460281372,402.71527791023254,None,402.71527791023254,None,402.71527791023254,None,-1,-1,1,True,236.03582382202148,659.1341495513916,right,405.51339888572693,None,pp_20,clamp,icub,2022_Jan_10_1029,exp,2021.2.3,60.003404810510844,
right,go,1,0,1,0,0,0,0,3,442.68511509895325,None,1,11.530696868896484,442.68511509895325,None,454.3395390510559,None,455.3530271053314,455.7046980857849,455.3530271053314,455.7046980857849,454.3395390510559,None,454.3395390510559,None,454.3395390510559,None,-1,-1,1,True,213.151216506958,494.7035312652588,right,456.938481092453,None,pp_20,clamp,icub,2022_Jan_10_1029,exp,2021.2.3,60.003404810510844,
left,go,1,0,1,0,0,1,1,1,457.44377088546753,None,1,1.0970029830932617,457.44377088546753,None,458.66439509391785,None,459.67703890800476,460.03281903266907,459.67703890800476,460.03281903266907,458.66439509391785,None,458.66439509391785,None,458.66439509391785,None,-1,-1,1,True,245.7408905029297,555.2234649658203,left,461.35125398635864,None,pp_20,clamp,icub,2022_Jan_10_1029,exp,2021.2.3,60.003404810510844,
right,stop,1,0,1,0,0,2,2,5,461.8644709587097,None,1,1.0846819877624512,461.8644709587097,None,463.02448296546936,None,464.0377879142761,464.38955092430115,464.0377879142761,464.38955092430115,463.02448296546936,None,463.02448296546936,None,463.02448296546936,None,-150,-150,0,True,271.88706398010254,474.1981029510498,right,465.67059898376465,None,pp_20,clamp,icub,2022_Jan_10_1029,exp,2021.2.3,60.003404810510844,
left,go,1,0,1,0,0,3,3,0,466.19118094444275,None,1,0.7119381427764893,466.19118094444275,None,467.0405910015106,None,468.04784893989563,468.40871596336365,468.04784893989563,468.40871596336365,467.0405910015106,None,467.0405910015106,None,467.0405910015106,None,-1,-1,1,True,332.1232795715332,657.6716899871826,left,469.9258849620819,None,pp_20,clamp,icub,2022_Jan_10_1029,exp,2021.2.3,60.003404810510844,
left,go,1,0,1,0,0,4,4,1,470.4426999092102,None,1,0.8618738651275635,470.4426999092102,None,471.41916394233704,None,472.4425549507141,472.7980909347534,472.4425549507141,472.7980909347534,471.41916394233704,None,471.41916394233704,None,471.41916394233704,None,-1,-1,1,True,304.8727512359619,561.8913173675537,left,474.1932759284973,None,pp_20,clamp,icub,2022_Jan_10_1029,exp,2021.2.3,60.003404810510844,
left,stop,1,0,1,0,0,5,5,2,474.7072789669037,None,1,0.7316148281097412,474.7072789669037,None,475.5581319332123,None,476.58463191986084,476.94576692581177,476.58463191986084,476.94576692581177,475.5581319332123,None,475.5581319332123,None,475.5581319332123,None,-150,-200,0,True,376.9111633300781,660.2962017059326,left,478.4768340587616,None,pp_20,clamp,icub,2022_Jan_10_1029,exp,2021.2.3,60.003404810510844,
right,go,1,0,1,0,1,0,6,4,478.9830598831177,None,1,0.5248198509216309,478.9830598831177,None,479.5883300304413,None,480.5869770050049,480.9118890762329,480.5869770050049,480.9118890762329,479.5883300304413,None,479.5883300304413,None,479.5883300304413,None,-1,-1,1,True,316.8947696685791,576.0910511016846,right,482.37611508369446,None,pp_20,clamp,icub,2022_Jan_10_1029,exp,2021.2.3,60.003404810510844,
left,go,1,0,1,0,1,1,7,1,482.898295879364,None,1,1.0649058818817139,482.898295879364,None,484.05710196495056,None,485.05710887908936,485.41209506988525,485.05710887908936,485.41209506988525,484.05710196495056,None,484.05710196495056,None,484.05710196495056,None,-1,-1,1,True,284.5888137817383,486.7069721221924,left,486.7085449695587,None,pp_20,clamp,icub,2022_Jan_10_1029,exp,2021.2.3,60.003404810510844,
right,go,1,0,1,0,1,2,8,4,487.22170996665955,None,1,0.7338821887969971,487.22170996665955,None,488.0750370025635,None,489.0869290828705,489.4410800933838,489.0869290828705,489.4410800933838,488.0750370025635,None,488.0750370025635,None,488.0750370025635,None,-1,-1,1,True,391.3693428039551,515.7220363616943,right,490.859787940979,None,pp_20,clamp,icub,2022_Jan_10_1029,exp,2021.2.3,60.003404810510844,
left,go,1,0,1,0,1,3,9,1,491.38049387931824,None,1,1.1513400077819824,491.38049387931824,None,492.6603670120239,None,493.6718440055847,494.01848006248474,493.6718440055847,494.01848006248474,492.6603670120239,None,492.6603670120239,None,492.6603670120239,None,-1,-1,1,True,289.8826599121094,534.7449779510498,left,495.3763659000397,None,pp_20,clamp,icub,2022_Jan_10_1029,exp,2021.2.3,60.003404810510844,
right,go,1,0,1,0,1,4,10,3,495.8832790851593,None,1,0.7515180110931396,495.8832790851593,None,496.73531103134155,None,497.7290589809418,498.0766899585724,497.7290589809418,498.0766899585724,496.73531103134155,None,496.73531103134155,None,496.73531103134155,None,-1,-1,1,True,270.719051361084,491.63198471069336,right,499.3935110569,None,pp_20,clamp,icub,2022_Jan_10_1029,exp,2021.2.3,60.003404810510844,
right,stop,1,0,1,0,1,5,11,5,499.90469789505005,None,1,0.8262901306152344,499.90469789505005,None,500.8167679309845,None,501.8221080303192,502.1763279438019,501.8221080303192,502.1763279438019,500.8167679309845,None,500.8167679309845,None,500.8167679309845,None,-200,-200,0,True,217.39530563354492,525.7186889648438,right,503.4551260471344,None,pp_20,clamp,icub,2022_Jan_10_1029,exp,2021.2.3,60.003404810510844,
left,go,1,0,1,0,2,0,12,1,503.9550430774689,None,1,0.7316899299621582,503.9550430774689,None,504.80519104003906,None,505.82366609573364,506.1849799156189,505.82366609573364,506.1849799156189,504.80519104003906,None,504.80519104003906,None,504.80519104003906,None,-1,-1,1,True,232.88273811340332,505.9337615966797,left,507.4594929218292,None,pp_20,clamp,icub,2022_Jan_10_1029,exp,2021.2.3,60.003404810510844,
right,stop,1,0,1,0,2,1,13,5,507.9571108818054,None,1,0.7536358833312988,507.9571108818054,None,508.8486170768738,None,509.8573920726776,510.2099130153656,509.8573920726776,510.2099130153656,508.8486170768738,None,508.8486170768738,None,508.8486170768738,None,-200,-250,0,True,225.0802516937256,588.021993637085,right,511.55097699165344,None,pp_20,clamp,icub,2022_Jan_10_1029,exp,2021.2.3,60.003404810510844,
right,stop,1,0,1,0,2,2,14,5,512.084578037262,None,1,0.5534029006958008,512.084578037262,None,512.7488040924072,None,513.7450220584869,514.1077980995178,513.7450220584869,514.1077980995178,512.7488040924072,None,512.7488040924072,None,512.7488040924072,None,-200,-300,0,True,254.27770614624023,591.9578075408936,right,515.481281042099,None,pp_20,clamp,icub,2022_Jan_10_1029,exp,2021.2.3,60.003404810510844,
left,go,1,0,1,0,2,3,15,0,516.0061869621277,None,1,0.4462778568267822,516.0061869621277,None,516.5381519794464,None,517.5329830646515,517.9022920131683,517.5329830646515,517.9022920131683,516.5381519794464,None,516.5381519794464,None,516.5381519794464,None,-1,-1,1,True,281.45527839660645,582.8685760498047,left,519.2922410964966,None,pp_20,clamp,icub,2022_Jan_10_1029,exp,2021.2.3,60.003404810510844,
right,go,1,0,1,0,2,4,16,4,519.8010160923004,None,1,0.7562229633331299,519.8010160923004,None,520.6521980762482,None,521.6704890727997,522.0156350135803,521.6704890727997,522.0156350135803,520.6521980762482,None,520.6521980762482,None,520.6521980762482,None,-1,-1,1,True,285.6919765472412,600.8462905883789,right,523.408164024353,None,pp_20,clamp,icub,2022_Jan_10_1029,exp,2021.2.3,60.003404810510844,
left,go,1,0,1,0,2,5,17,0,523.9291129112244,None,1,1.0285627841949463,523.9291129112244,None,525.0899128913879,None,526.0984790325165,526.4450459480286,526.0984790325165,526.4450459480286,525.0899128913879,None,525.0899128913879,None,525.0899128913879,None,-1,-1,1,True,261.63792610168457,570.2950954437256,left,527.8323390483856,None,pp_20,clamp,icub,2022_Jan_10_1029,exp,2021.2.3,60.003404810510844,
right,go,1,0,1,0,3,0,18,4,528.3516581058502,None,1,0.9926109313964844,528.3516581058502,None,529.4519510269165,None,530.4695510864258,530.8246130943298,530.4695510864258,530.8246130943298,529.4519510269165,None,529.4519510269165,None,529.4519510269165,None,-1,-1,1,True,217.01478958129883,644.9484825134277,right,532.1994650363922,None,pp_20,clamp,icub,2022_Jan_10_1029,exp,2021.2.3,60.003404810510844,
left,go,1,0,1,0,3,1,19,1,532.7168231010437,None,1,0.804847002029419,532.7168231010437,None,533.6316919326782,None,534.6370000839233,534.982861995697,534.6370000839233,534.982861995697,533.6316919326782,None,533.6316919326782,None,533.6316919326782,None,-1,-1,1,True,188.66324424743652,557.6190948486328,left,536.2620000839233,None,pp_20,clamp,icub,2022_Jan_10_1029,exp,2021.2.3,60.003404810510844,
left,stop,1,0,1,0,3,2,20,2,536.7722489833832,None,1,0.892503023147583,536.7722489833832,None,537.7504239082336,None,538.7651588916779,539.1216390132904,538.7651588916779,539.1216390132904,537.7504239082336,None,537.7504239082336,None,537.7504239082336,None,-200,-350,0,True,273.2827663421631,644.8171138763428,left,540.5697839260101,None,pp_20,clamp,icub,2022_Jan_10_1029,exp,2021.2.3,60.003404810510844,
left,go,1,0,1,0,3,3,21,1,541.0704228878021,None,1,0.7402219772338867,541.0704228878021,None,541.9193608760834,None,542.9419569969177,543.2979369163513,542.9419569969177,543.2979369163513,541.9193608760834,None,541.9193608760834,None,541.9193608760834,None,-1,-1,1,True,218.6272144317627,599.616289138794,left,544.6492869853973,None,pp_20,clamp,icub,2022_Jan_10_1029,exp,2021.2.3,60.003404810510844,
left,go,1,0,1,0,3,4,22,0,545.150269985199,None,1,1.311208963394165,545.150269985199,None,546.5890319347382,None,547.5997679233551,547.9666199684143,547.5997679233551,547.9666199684143,546.5890319347382,None,546.5890319347382,None,546.5890319347382,None,-1,-1,1,True,229.0334701538086,520.2887058258057,left,549.2430288791656,None,pp_20,clamp,icub,2022_Jan_10_1029,exp,2021.2.3,60.003404810510844,
left,go,1,0,1,0,3,5,23,0,549.7532939910889,None,1,1.1623411178588867,549.7532939910889,None,551.0406939983368,None,552.0591139793396,552.4286799430847,552.0591139793396,552.4286799430847,551.0406939983368,None,551.0406939983368,None,551.0406939983368,None,-1,-1,1,True,228.50561141967773,575.1636028289795,left,553.7258560657501,None,pp_20,clamp,icub,2022_Jan_10_1029,exp,2021.2.3,60.003404810510844,
left,go,1,0,1,0,4,0,24,1,554.2529881000519,None,1,1.1205928325653076,554.2529881000519,None,555.4749100208282,None,556.4676718711853,556.817125082016,556.4676718711853,556.817125082016,555.4749100208282,None,555.4749100208282,None,555.4749100208282,None,-1,-1,1,True,311.66553497314453,648.7722396850586,left,558.3307459354401,None,pp_20,clamp,icub,2022_Jan_10_1029,exp,2021.2.3,60.003404810510844,
right,go,1,0,1,0,4,1,25,4,558.8386929035187,None,1,1.5478479862213135,558.8386929035187,None,560.4928710460663,None,561.5276560783386,561.8850500583649,561.5276560783386,561.8850500583649,560.4928710460663,None,560.4928710460663,None,560.4928710460663,None,-1,-1,1,True,237.26153373718262,554.8853874206543,right,563.1570069789886,None,pp_20,clamp,icub,2022_Jan_10_1029,exp,2021.2.3,60.003404810510844,
right,go,1,0,1,0,4,2,26,4,563.678288936615,None,1,1.0739941596984863,563.678288936615,None,564.8377289772034,None,565.8473870754242,566.1943120956421,565.8473870754242,566.1943120956421,564.8377289772034,None,564.8377289772034,None,564.8377289772034,None,-1,-1,1,True,399.9509811401367,433.4561824798584,right,567.5409829616547,None,pp_20,clamp,icub,2022_Jan_10_1029,exp,2021.2.3,60.003404810510844,
right,go,1,0,1,0,4,3,27,4,568.0472068786621,None,1,0.6439640522003174,568.0472068786621,None,568.7765920162201,None,569.7933900356293,570.1460480690002,569.7933900356293,570.1460480690002,568.7765920162201,None,568.7765920162201,None,568.7765920162201,None,-1,-1,1,True,213.57154846191406,584.3265056610107,right,571.4701900482178,None,pp_20,clamp,icub,2022_Jan_10_1029,exp,2021.2.3,60.003404810510844,
right,stop,1,0,1,0,4,4,28,5,571.9747440814972,None,1,0.8640999794006348,571.9747440814972,None,572.9485459327698,None,573.9613389968872,574.3211739063263,573.9613389968872,574.3211739063263,572.9485459327698,None,572.9485459327698,None,572.9485459327698,None,-250,-350,0,True,254.15682792663574,473.7427234649658,right,575.5846879482269,None,pp_20,clamp,icub,2022_Jan_10_1029,exp,2021.2.3,60.003404810510844,
left,go,1,0,1,0,4,5,29,0,576.0959079265594,None,1,0.5437021255493164,576.0959079265594,None,576.7621159553528,None,577.7908000946045,578.1530849933624,577.7908000946045,578.1530849933624,576.7621159553528,None,576.7621159553528,None,576.7621159553528,None,-1,-1,1,True,245.2378273010254,517.5735950469971,left,579.4030349254608,None,pp_20,clamp,icub,2022_Jan_10_1029,exp,2021.2.3,60.003404810510844,
left,go,1,0,1,0,5,0,30,0,579.9126899242401,None,1,0.6278412342071533,579.9126899242401,None,580.6408278942108,None,581.6570661067963,582.0210680961609,581.6570661067963,582.0210680961609,580.6408278942108,None,580.6408278942108,None,580.6408278942108,None,-1,-1,1,True,270.9524631500244,510.7269287109375,left,583.3093678951263,None,pp_20,clamp,icub,2022_Jan_10_1029,exp,2021.2.3,60.003404810510844,
left,stop,1,0,1,0,5,1,31,2,583.8274869918823,None,1,0.6580159664154053,583.8274869918823,None,584.6128630638123,None,585.64138007164,585.9972949028015,585.64138007164,585.9972949028015,584.6128630638123,None,584.6128630638123,None,584.6128630638123,None,-250,-400,0,True,303.91502380371094,467.12327003479004,left,587.2961299419403,None,pp_20,clamp,icub,2022_Jan_10_1029,exp,2021.2.3,60.003404810510844,
right,go,1,0,1,0,5,2,32,3,587.7959179878235,None,1,0.5306518077850342,587.7959179878235,None,588.459135055542,None,589.4937369823456,589.8400321006775,589.4937369823456,589.8400321006775,588.459135055542,None,588.459135055542,None,588.459135055542,None,-1,-1,1,True,466.86649322509766,414.811372756958,right,591.2417640686035,None,pp_20,clamp,icub,2022_Jan_10_1029,exp,2021.2.3,60.003404810510844,
left,go,1,0,1,0,5,3,33,1,591.7408220767975,None,1,0.7886800765991211,591.7408220767975,None,592.6521029472351,None,593.6555519104004,594.0103769302368,593.6555519104004,594.0103769302368,592.6521029472351,None,592.6521029472351,None,592.6521029472351,None,-1,-1,1,True,251.4040470123291,384.0029239654541,left,595.1786448955536,None,pp_20,clamp,icub,2022_Jan_10_1029,exp,2021.2.3,60.003404810510844,
right,go,1,0,1,0,5,4,34,3,595.6902859210968,None,1,0.9592561721801758,595.6902859210968,None,596.7299439907074,None,597.7311410903931,598.0781209468842,597.7311410903931,598.0781209468842,596.7299439907074,None,596.7299439907074,None,596.7299439907074,None,-1,-1,1,True,302.16121673583984,440.3414726257324,right,599.3519690036774,None,pp_20,clamp,icub,2022_Jan_10_1029,exp,2021.2.3,60.003404810510844,
left,go,1,0,1,0,5,5,35,1,599.8616790771484,None,1,1.2559750080108643,599.8616790771484,None,601.2054390907288,None,602.2318589687347,602.5817129611969,602.2318589687347,602.5817129611969,601.2054390907288,None,601.2054390907288,None,601.2054390907288,None,-1,-1,1,True,273.38147163391113,390.9411430358887,left,603.7702379226685,None,pp_20,clamp,icub,2022_Jan_10_1029,exp,2021.2.3,60.003404810510844,
right,go,1,0,1,0,6,0,36,3,604.2906239032745,None,1,0.6699588298797607,604.2906239032745,None,605.0797109603882,None,606.077045917511,606.4250330924988,606.077045917511,606.4250330924988,605.0797109603882,None,605.0797109603882,None,605.0797109603882,None,-1,-1,1,True,275.3899097442627,458.9369297027588,right,607.6932220458984,None,pp_20,clamp,icub,2022_Jan_10_1029,exp,2021.2.3,60.003404810510844,
left,go,1,0,1,0,6,1,37,0,608.1970460414886,None,1,0.6438250541687012,608.1970460414886,None,608.9264988899231,None,609.9544820785522,610.2872030735016,609.9544820785522,610.2872030735016,608.9264988899231,None,608.9264988899231,None,608.9264988899231,None,-1,-1,1,True,335.5562686920166,454.4856548309326,left,611.6036839485168,None,pp_20,clamp,icub,2022_Jan_10_1029,exp,2021.2.3,60.003404810510844,
right,go,1,0,1,0,6,2,38,3,612.1046450138092,None,1,0.5978200435638428,612.1046450138092,None,612.8300580978394,None,613.8463640213013,614.201574087143,613.8463640213013,614.201574087143,612.8300580978394,None,612.8300580978394,None,612.8300580978394,None,-1,-1,1,True,235.11552810668945,418.26415061950684,right,615.3758878707886,None,pp_20,clamp,icub,2022_Jan_10_1029,exp,2021.2.3,60.003404810510844,
left,stop,1,0,1,0,6,3,39,2,615.8772969245911,None,1,0.6933581829071045,615.8772969245911,None,616.6674520969391,None,617.6741099357605,618.0114588737488,617.6741099357605,618.0114588737488,616.6674520969391,None,616.6674520969391,None,616.6674520969391,None,-300,-400,0,True,302.5040626525879,428.1752109527588,left,619.2812280654907,None,pp_20,clamp,icub,2022_Jan_10_1029,exp,2021.2.3,60.003404810510844,
right,go,1,0,1,0,6,4,40,3,619.7935409545898,None,1,0.6260831356048584,619.7935409545898,None,620.5198769569397,None,621.5149168968201,621.8455390930176,621.5149168968201,621.8455390930176,620.5198769569397,None,620.5198769569397,None,620.5198769569397,None,-1,-1,1,True,310.02306938171387,447.7262496948242,right,623.1690180301666,None,pp_20,clamp,icub,2022_Jan_10_1029,exp,2021.2.3,60.003404810510844,
right,stop,1,0,1,0,6,5,41,5,623.6867940425873,None,1,0.7001850605010986,623.6867940425873,None,624.5101959705353,None,625.5332629680634,625.8905200958252,625.5332629680634,625.8905200958252,624.5101959705353,None,624.5101959705353,None,624.5101959705353,None,-350,-400,0,True,298.8264560699463,545.4714298248291,right,627.2322010993958,None,pp_20,clamp,icub,2022_Jan_10_1029,exp,2021.2.3,60.003404810510844,
left,stop,1,0,1,0,7,0,42,2,627.7491900920868,None,1,0.7461249828338623,627.7491900920868,None,628.5998868942261,None,629.5979599952698,629.9282939434052,629.5979599952698,629.9282939434052,628.5998868942261,None,628.5998868942261,None,628.5998868942261,None,-350,-450,0,True,371.95563316345215,534.9292755126953,left,631.4000079631805,None,pp_20,clamp,icub,2022_Jan_10_1029,exp,2021.2.3,60.003404810510844,
left,stop,1,0,1,0,7,1,43,2,631.9350290298462,None,1,0.9152729511260986,631.9350290298462,None,632.9738569259644,None,633.9941968917847,634.3460528850555,633.9941968917847,634.3460528850555,632.9738569259644,None,632.9738569259644,None,632.9738569259644,None,-400,-450,0,True,481.6877841949463,481.966495513916,left,635.8371019363403,None,pp_20,clamp,icub,2022_Jan_10_1029,exp,2021.2.3,60.003404810510844,
right,go,1,0,1,0,7,2,44,4,636.3688290119171,None,1,2.0031349658966064,636.3688290119171,None,638.462583065033,None,639.4682829380035,639.8208730220795,639.4682829380035,639.8208730220795,638.462583065033,None,638.462583065033,None,638.462583065033,None,-1,-1,1,True,393.9945697784424,372.30706214904785,right,641.122850894928,None,pp_20,clamp,icub,2022_Jan_10_1029,exp,2021.2.3,60.003404810510844,
left,go,1,0,1,0,7,3,45,0,641.6392018795013,None,1,0.5113799571990967,641.6392018795013,None,642.2430648803711,None,643.273106098175,643.6315369606018,643.273106098175,643.6315369606018,642.2430648803711,None,642.2430648803711,None,642.2430648803711,None,-1,-1,1,True,239.7143840789795,371.69957160949707,left,644.7319118976593,None,pp_20,clamp,icub,2022_Jan_10_1029,exp,2021.2.3,60.003404810510844,
left,go,1,0,1,0,7,4,46,1,645.2613198757172,None,1,0.7576329708099365,645.2613198757172,None,646.1096279621124,None,647.1350920200348,647.4787929058075,647.1350920200348,647.4787929058075,646.1096279621124,None,646.1096279621124,None,646.1096279621124,None,-1,-1,1,True,261.7967128753662,432.3251247406006,left,648.7015089988708,None,pp_20,clamp,icub,2022_Jan_10_1029,exp,2021.2.3,60.003404810510844,
left,stop,1,0,1,0,7,5,47,2,649.2121911048889,None,1,0.6454000473022461,649.2121911048889,None,649.9429860115051,None,650.9632821083069,651.329216003418,650.9632821083069,651.329216003418,649.9429860115051,None,649.9429860115051,None,649.9429860115051,None,-450,-450,0,True,285.68553924560547,571.2523460388184,left,652.6771130561829,None,pp_20,clamp,icub,2022_Jan_10_1029,exp,2021.2.3,60.003404810510844,
left,stop,1,0,1,0,8,0,48,2,653.2054080963135,None,1,0.6697728633880615,653.2054080963135,None,653.9938549995422,None,654.9865729808807,655.3345260620117,654.9865729808807,655.3345260620117,653.9938549995422,None,653.9938549995422,None,653.9938549995422,None,-500,-450,0,True,292.63901710510254,536.1146926879883,left,656.6938951015472,None,pp_20,clamp,icub,2022_Jan_10_1029,exp,2021.2.3,60.003404810510844,
right,go,1,0,1,0,8,1,49,4,657.2134389877319,None,1,0.4178791046142578,657.2134389877319,None,657.7550919055939,None,658.7759029865265,659.1348190307617,658.7759029865265,659.1348190307617,657.7550919055939,None,657.7550919055939,None,657.7550919055939,None,-1,-1,1,True,229.8147678375244,475.7533073425293,right,660.371120929718,None,pp_20,clamp,icub,2022_Jan_10_1029,exp,2021.2.3,60.003404810510844,
right,go,1,0,1,0,8,2,50,3,660.8858280181885,None,1,0.8234069347381592,660.8858280181885,None,661.8001868724823,None,662.825131893158,663.1866629123688,662.825131893158,663.1866629123688,661.8001868724823,None,661.8001868724823,None,661.8001868724823,None,-1,-1,1,True,219.35749053955078,467.58008003234863,right,664.393805027008,None,pp_20,clamp,icub,2022_Jan_10_1029,exp,2021.2.3,60.003404810510844,
right,go,1,0,1,0,8,3,51,3,664.8977069854736,None,1,2.1895740032196045,664.8977069854736,None,667.215166091919,None,668.2155520915985,668.5597910881042,668.2155520915985,668.5597910881042,667.215166091919,None,667.215166091919,None,667.215166091919,None,-1,-1,1,True,108.17456245422363,502.4533271789551,right,669.7216379642487,None,pp_20,clamp,icub,2022_Jan_10_1029,exp,2021.2.3,60.003404810510844,
left,stop,1,0,1,0,8,4,52,2,670.2349669933319,None,1,0.8102030754089355,670.2349669933319,None,671.1460609436035,None,672.1762840747833,672.5257720947266,672.1762840747833,672.5257720947266,671.1460609436035,None,671.1460609436035,None,671.1460609436035,None,-550,-450,0,True,119.24958229064941,548.8922595977783,left,673.7259299755096,None,pp_20,clamp,icub,2022_Jan_10_1029,exp,2021.2.3,60.003404810510844,
right,go,1,0,1,0,8,5,53,4,674.2455859184265,None,1,0.7827260494232178,674.2455859184265,None,675.1570949554443,None,676.174397945404,676.5220060348511,676.174397945404,676.5220060348511,675.1570949554443,None,675.1570949554443,None,675.1570949554443,None,-1,-1,1,True,202.8043270111084,457.9951763153076,right,677.7066419124603,None,pp_20,clamp,icub,2022_Jan_10_1029,exp,2021.2.3,60.003404810510844,
right,stop,1,0,1,0,9,0,54,5,678.2347419261932,None,1,0.7736001014709473,678.2347419261932,None,679.0888869762421,None,680.1013820171356,680.4623520374298,680.1013820171356,680.4623520374298,679.0888869762421,None,679.0888869762421,None,679.0888869762421,None,-600,-450,0,True,287.83535957336426,506.5021514892578,right,681.7940039634705,None,pp_20,clamp,icub,2022_Jan_10_1029,exp,2021.2.3,60.003404810510844,
left,go,1,0,1,0,9,1,55,1,682.3227200508118,None,1,0.6563808917999268,682.3227200508118,None,683.1083579063416,None,684.1180009841919,684.4765529632568,684.1180009841919,684.4765529632568,683.1083579063416,None,683.1083579063416,None,683.1083579063416,None,-1,-1,1,True,192.98028945922852,566.0836696624756,left,685.7685480117798,None,pp_20,clamp,icub,2022_Jan_10_1029,exp,2021.2.3,60.003404810510844,
right,go,1,0,1,0,9,2,56,3,686.2840750217438,None,1,0.8913400173187256,686.2840750217438,None,687.2610960006714,None,688.2576808929443,688.6001479625702,688.2576808929443,688.6001479625702,687.2610960006714,None,687.2610960006714,None,687.2610960006714,None,-1,-1,1,True,91.08638763427734,556.3540458679199,right,689.7737970352173,None,pp_20,clamp,icub,2022_Jan_10_1029,exp,2021.2.3,60.003404810510844,
left,go,1,0,1,0,9,3,57,0,690.2803869247437,None,1,0.6889910697937012,690.2803869247437,None,691.070072889328,None,692.1002790927887,692.450443983078,692.1002790927887,692.450443983078,691.070072889328,None,691.070072889328,None,691.070072889328,None,-1,-1,1,True,80.11436462402344,561.5813732147217,left,693.6214389801025,None,pp_20,clamp,icub,2022_Jan_10_1029,exp,2021.2.3,60.003404810510844,
left,go,1,0,1,0,9,4,58,0,694.1386070251465,None,1,0.7528011798858643,694.1386070251465,None,694.9920768737793,None,696.0149550437927,696.3691720962524,696.0149550437927,696.3691720962524,694.9920768737793,None,694.9920768737793,None,694.9920768737793,None,-1,-1,1,True,198.95529747009277,578.547477722168,left,697.678631067276,None,pp_20,clamp,icub,2022_Jan_10_1029,exp,2021.2.3,60.003404810510844,
right,stop,1,0,1,0,9,5,59,5,698.1955819129944,None,1,0.7739460468292236,698.1955819129944,None,699.0497488975525,None,700.0461659431458,700.4014430046082,700.0461659431458,700.4014430046082,699.0497488975525,None,699.0497488975525,None,699.0497488975525,None,-600,-500,0,True,215.5139446258545,548.7015247344971,right,701.6996231079102,None,pp_20,clamp,icub,2022_Jan_10_1029,exp,2021.2.3,60.003404810510844,
left,stop,1,0,1,0,10,0,60,2,702.219309091568,None,1,0.7279131412506104,702.219309091568,None,703.0563631057739,None,704.0707190036774,704.4288249015808,704.0707190036774,704.4288249015808,703.0563631057739,None,703.0563631057739,None,703.0563631057739,None,-600,-550,0,True,193.41039657592773,540.6789779663086,left,705.6934289932251,None,pp_20,clamp,icub,2022_Jan_10_1029,exp,2021.2.3,60.003404810510844,
right,go,1,0,1,0,10,1,61,4,706.2054829597473,None,1,0.3616931438446045,706.2054829597473,None,706.683226108551,None,707.7018818855286,708.0614268779755,707.7018818855286,708.0614268779755,706.683226108551,None,706.683226108551,None,706.683226108551,None,-1,-1,1,True,236.07730865478516,526.6289710998535,right,709.3598289489746,None,pp_20,clamp,icub,2022_Jan_10_1029,exp,2021.2.3,60.003404810510844,
right,stop,1,0,1,0,10,2,62,5,709.8744399547577,None,1,1.1605041027069092,709.8744399547577,None,711.1581258773804,None,712.1868469715118,712.5591700077057,712.1868469715118,712.5591700077057,711.1581258773804,None,711.1581258773804,None,711.1581258773804,None,-650,-550,0,True,263.0500793457031,469.5310592651367,right,713.7838819026947,None,pp_20,clamp,icub,2022_Jan_10_1029,exp,2021.2.3,60.003404810510844,
right,stop,1,0,1,0,10,3,63,5,714.2901089191437,None,1,0.6303620338439941,714.2901089191437,None,715.0208508968353,None,716.0229721069336,716.3796830177307,716.0229721069336,716.3796830177307,715.0208508968353,None,715.0208508968353,None,715.0208508968353,None,-650,-600,0,True,258.6183547973633,373.55589866638184,right,717.5446028709412,None,pp_20,clamp,icub,2022_Jan_10_1029,exp,2021.2.3,60.003404810510844,
left,stop,1,0,1,0,10,4,64,2,718.0805571079254,None,1,0.22233796119689941,718.0805571079254,None,718.4360539913177,None,719.4480729103088,719.7892050743103,719.4480729103088,719.7892050743103,718.4360539913177,None,718.4360539913177,None,718.4360539913177,None,-650,-650,0,True,177.0498752593994,457.68260955810547,left,720.971549987793,None,pp_20,clamp,icub,2022_Jan_10_1029,exp,2021.2.3,60.003404810510844,
right,stop,1,0,1,0,10,5,65,5,721.4762589931488,None,1,0.5008060932159424,721.4762589931488,None,722.0837159156799,None,723.1074829101562,723.462080001831,723.1074829101562,723.462080001831,722.0837159156799,None,722.0837159156799,None,722.0837159156799,None,-700,-650,0,True,270.0984477996826,332.70907402038574,right,724.5974409580231,None,pp_20,clamp,icub,2022_Jan_10_1029,exp,2021.2.3,60.003404810510844,
right,stop,1,0,1,0,11,0,66,5,725.1143159866333,None,1,0.5282049179077148,725.1143159866333,None,725.775209903717,None,726.7976560592651,727.1679949760437,726.7976560592651,727.1679949760437,725.775209903717,None,725.775209903717,None,725.775209903717,None,-700,-700,0,True,335.1113796234131,353.79815101623535,right,728.3456130027771,None,pp_20,clamp,icub,2022_Jan_10_1029,exp,2021.2.3,60.003404810510844,
left,go,1,0,1,0,11,1,67,0,728.8639039993286,None,1,1.1892139911651611,728.8639039993286,None,730.1471719741821,None,731.1701769828796,731.5319020748138,731.1701769828796,731.5319020748138,730.1471719741821,None,730.1471719741821,None,730.1471719741821,None,-1,-1,1,True,227.71430015563965,446.5606212615967,left,732.735004901886,None,pp_20,clamp,icub,2022_Jan_10_1029,exp,2021.2.3,60.003404810510844,
right,go,1,0,1,0,11,2,68,3,733.253504037857,None,1,1.2373850345611572,733.253504037857,None,734.5972950458527,None,735.5886359214783,735.9406108856201,735.5886359214783,735.9406108856201,734.5972950458527,None,734.5972950458527,None,734.5972950458527,None,-1,-1,1,True,291.28336906433105,399.8072147369385,right,737.1656429767609,None,pp_20,clamp,icub,2022_Jan_10_1029,exp,2021.2.3,60.003404810510844,
left,stop,1,0,1,0,11,3,69,2,737.6719319820404,None,1,1.1263880729675293,737.6719319820404,None,738.8920500278473,None,739.904100894928,740.237212896347,739.904100894928,740.237212896347,738.8920500278473,None,738.8920500278473,None,738.8920500278473,None,-700,-750,0,True,341.7229652404785,433.20775032043457,left,741.5474600791931,None,pp_20,clamp,icub,2022_Jan_10_1029,exp,2021.2.3,60.003404810510844,
left,go,1,0,1,0,11,4,70,1,742.0677840709686,None,1,0.48711299896240234,742.0677840709686,None,742.6694068908691,None,743.6972410678864,744.0582408905029,743.6972410678864,744.0582408905029,742.6694068908691,None,742.6694068908691,None,742.6694068908691,None,-1,-1,1,True,409.0311527252197,391.66879653930664,left,745.3539090156555,None,pp_20,clamp,icub,2022_Jan_10_1029,exp,2021.2.3,60.003404810510844,
right,go,1,0,1,0,11,5,71,4,745.8546459674835,None,1,1.2933921813964844,745.8546459674835,None,747.2625539302826,None,748.261677980423,748.6193459033966,748.261677980423,748.6193459033966,747.2625539302826,None,747.2625539302826,None,747.2625539302826,None,-1,-1,1,True,316.6773319244385,397.57513999938965,right,749.8668320178986,None,pp_20,clamp,icub,2022_Jan_10_1029,exp,2021.2.3,60.003404810510844,
left,go,1,0,1,0,12,0,72,0,750.3680219650269,None,1,0.7478561401367188,750.3680219650269,None,751.2228209972382,None,752.2471010684967,752.6099119186401,752.2471010684967,752.6099119186401,751.2228209972382,None,751.2228209972382,None,751.2228209972382,None,-1,-1,1,True,362.1523380279541,406.44145011901855,left,753.865562915802,None,pp_20,clamp,icub,2022_Jan_10_1029,exp,2021.2.3,60.003404810510844,
left,stop,1,0,1,0,12,1,73,2,754.3800230026245,None,1,0.695328950881958,754.3800230026245,None,755.1703391075134,None,756.1612720489502,756.4984750747681,756.1612720489502,756.4984750747681,755.1703391075134,None,755.1703391075134,None,755.1703391075134,None,-750,-750,0,True,436.16366386413574,497.5550174713135,left,757.9978070259094,None,pp_20,clamp,icub,2022_Jan_10_1029,exp,2021.2.3,60.003404810510844,
right,go,1,0,1,0,12,2,74,4,758.5041079521179,None,1,0.43970608711242676,758.5041079521179,None,759.0444600582123,None,760.0629920959473,760.4164938926697,760.0629920959473,760.4164938926697,759.0444600582123,None,759.0444600582123,None,759.0444600582123,None,-1,-1,1,True,467.18311309814453,393.9645290374756,right,761.7975280284882,None,pp_20,clamp,icub,2022_Jan_10_1029,exp,2021.2.3,60.003404810510844,
right,go,1,0,1,0,12,3,75,3,762.3144860267639,None,1,0.6524348258972168,762.3144860267639,None,763.0903558731079,None,764.1141939163208,764.4696340560913,764.1141939163208,764.4696340560913,763.0903558731079,None,763.0903558731079,None,763.0903558731079,None,-1,-1,1,True,268.5561180114746,391.22724533081055,right,765.657711982727,None,pp_20,clamp,icub,2022_Jan_10_1029,exp,2021.2.3,60.003404810510844,
right,stop,1,0,1,0,12,4,76,5,766.1730859279633,None,1,0.5692281723022461,766.1730859279633,None,766.8430020809174,None,767.8634119033813,768.1895411014557,767.8634119033813,768.1895411014557,766.8430020809174,None,766.8430020809174,None,766.8430020809174,None,-800,-750,0,True,309.59033966064453,368.49141120910645,right,769.4052920341492,None,pp_20,clamp,icub,2022_Jan_10_1029,exp,2021.2.3,60.003404810510844,
right,go,1,0,1,0,12,5,77,3,769.913969039917,None,1,0.625068187713623,769.913969039917,None,770.6414799690247,None,771.6746881008148,772.0234529972076,771.6746881008148,772.0234529972076,770.6414799690247,None,770.6414799690247,None,770.6414799690247,None,-1,-1,1,True,413.8200283050537,426.6371726989746,right,773.357255935669,None,pp_20,clamp,icub,2022_Jan_10_1029,exp,2021.2.3,60.003404810510844,
right,go,2,0,2,0,0,0,0,4,804.2501809597015,None,1,115.05935001373291,804.2501809597015,None,919.4111399650574,None,920.405711889267,920.756597995758,920.405711889267,920.756597995758,919.4111399650574,None,919.4111399650574,None,919.4111399650574,None,-1,-1,1,True,176.0118007659912,353.5468578338623,right,921.8337669372559,None,pp_20,clamp,icub,2022_Jan_10_1029,exp,2021.2.3,60.003404810510844,
left,stop,2,0,2,0,0,1,1,2,922.3358728885651,None,1,0.9633200168609619,922.3358728885651,None,923.4319450855255,None,924.4235060214996,924.7838509082794,924.4235060214996,924.7838509082794,923.4319450855255,None,923.4319450855255,None,923.4319450855255,None,-800,-800,0,True,95.86596488952637,478.5029888153076,left,925.8961288928986,None,pp_20,clamp,icub,2022_Jan_10_1029,exp,2021.2.3,60.003404810510844,
left,go,2,0,2,0,0,2,2,0,926.4167840480804,None,1,0.6431488990783691,926.4167840480804,None,927.145397901535,None,928.1774129867554,928.5321109294891,928.1774129867554,928.5321109294891,927.145397901535,None,927.145397901535,None,927.145397901535,None,-1,-1,1,True,230.25083541870117,365.97514152526855,left,929.6269550323486,None,pp_20,clamp,icub,2022_Jan_10_1029,exp,2021.2.3,60.003404810510844,
left,go,2,0,2,0,0,3,3,0,930.1414430141449,None,1,0.7269740104675293,930.1414430141449,None,930.9913949966431,None,932.0242440700531,932.3828389644623,932.0242440700531,932.3828389644623,930.9913949966431,None,930.9913949966431,None,930.9913949966431,None,-1,-1,1,True,225.40020942687988,455.0137519836426,left,933.5448880195618,None,pp_20,clamp,icub,2022_Jan_10_1029,exp,2021.2.3,60.003404810510844,
right,go,2,0,2,0,0,4,4,4,934.0759880542755,None,1,0.9465341567993164,934.0759880542755,None,935.1129999160767,None,936.1067900657654,936.462809085846,936.1067900657654,936.462809085846,935.1129999160767,None,935.1129999160767,None,935.1129999160767,None,-1,-1,1,True,275.03466606140137,446.30980491638184,right,937.7066569328308,None,pp_20,clamp,icub,2022_Jan_10_1029,exp,2021.2.3,60.003404810510844,
right,go,2,0,2,0,0,5,5,4,938.2103929519653,None,1,0.6447241306304932,938.2103929519653,None,938.9404649734497,None,939.9376928806305,940.3052480220795,939.9376928806305,940.3052480220795,938.9404649734497,None,938.9404649734497,None,938.9404649734497,None,-1,-1,1,True,136.16085052490234,549.4489669799805,right,941.5006730556488,None,pp_20,clamp,icub,2022_Jan_10_1029,exp,2021.2.3,60.003404810510844,
left,stop,2,0,2,0,1,0,6,2,942.0092639923096,None,1,0.6739809513092041,942.0092639923096,None,942.7979180812836,None,943.8024940490723,944.1537868976593,943.8024940490723,944.1537868976593,942.7979180812836,None,942.7979180812836,None,942.7979180812836,None,-850,-800,0,True,39.90626335144043,552.0415306091309,left,945.2720968723297,None,pp_20,clamp,icub,2022_Jan_10_1029,exp,2021.2.3,60.003404810510844,
left,go,2,0,2,0,1,1,7,0,945.7922360897064,None,1,0.7153000831604004,945.7922360897064,None,946.6400649547577,None,947.6600999832153,948.0135099887848,947.6600999832153,948.0135099887848,946.6400649547577,None,946.6400649547577,None,946.6400649547577,None,-1,-1,1,True,279.0369987487793,527.7042388916016,left,949.3518459796906,None,pp_20,clamp,icub,2022_Jan_10_1029,exp,2021.2.3,60.003404810510844,
left,go,2,0,2,0,1,2,8,1,949.8620228767395,None,1,0.9990580081939697,949.8620228767395,None,950.9616930484772,None,951.986939907074,952.3421730995178,951.986939907074,952.3421730995178,950.9616930484772,None,950.9616930484772,None,950.9616930484772,None,-1,-1,1,True,251.9242763519287,576.2946605682373,left,953.6960899829865,None,pp_20,clamp,icub,2022_Jan_10_1029,exp,2021.2.3,60.003404810510844,
left,go,2,0,2,0,1,3,9,0,954.2126688957214,None,1,1.2173199653625488,954.2126688957214,None,955.5584790706635,None,956.5634911060333,956.9251310825348,956.5634911060333,956.9251310825348,955.5584790706635,None,955.5584790706635,None,955.5584790706635,None,-1,-1,1,True,265.46454429626465,451.2209892272949,left,958.1667969226837,None,pp_20,clamp,icub,2022_Jan_10_1029,exp,2021.2.3,60.003404810510844,
left,go,2,0,2,0,1,4,10,1,958.6851289272308,None,1,1.3847072124481201,958.6851289272308,None,960.1532940864563,None,961.1429779529572,961.4874320030212,961.1429779529572,961.4874320030212,960.1532940864563,None,960.1532940864563,None,960.1532940864563,None,-1,-1,1,True,243.67761611938477,646.1801528930664,left,962.9465050697327,None,pp_20,clamp,icub,2022_Jan_10_1029,exp,2021.2.3,60.003404810510844,
left,stop,2,0,2,0,1,5,11,2,963.4684610366821,None,1,0.9076159000396729,963.4684610366821,None,964.5043749809265,None,965.5313789844513,965.874694108963,965.5313789844513,965.874694108963,964.5043749809265,None,964.5043749809265,None,964.5043749809265,None,-900,-800,0,True,271.3894844055176,560.800313949585,left,967.2246050834656,None,pp_20,clamp,icub,2022_Jan_10_1029,exp,2021.2.3,60.003404810510844,
right,stop,2,0,2,0,2,0,12,5,967.7485620975494,None,1,1.1165220737457275,967.7485620975494,None,968.9719359874725,None,969.9694330692291,970.3221440315247,969.9694330692291,970.3221440315247,968.9719359874725,None,968.9719359874725,None,968.9719359874725,None,-950,-800,0,True,161.3597869873047,531.667947769165,right,971.5675899982452,None,pp_20,clamp,icub,2022_Jan_10_1029,exp,2021.2.3,60.003404810510844,
left,go,2,0,2,0,2,1,13,0,972.0758650302887,None,1,0.8263318538665771,972.0758650302887,None,972.9928019046783,None,974.0166380405426,974.3763060569763,974.0166380405426,974.3763060569763,972.9928019046783,None,972.9928019046783,None,972.9928019046783,None,-1,-1,1,True,214.89572525024414,652.7206897735596,left,975.7697639465332,None,pp_20,clamp,icub,2022_Jan_10_1029,exp,2021.2.3,60.003404810510844,
right,go,2,0,2,0,2,2,14,4,976.2863280773163,None,1,1.3008229732513428,976.2863280773163,None,977.6934869289398,None,978.7028419971466,979.0562379360199,978.7028419971466,979.0562379360199,977.6934869289398,None,977.6934869289398,None,977.6934869289398,None,-1,-1,1,True,295.15957832336426,605.196475982666,right,980.4751009941101,None,pp_20,clamp,icub,2022_Jan_10_1029,exp,2021.2.3,60.003404810510844,
right,go,2,0,2,0,2,3,15,3,980.9950270652771,None,1,1.2040557861328125,980.9950270652771,None,982.2745048999786,None,983.2989609241486,983.6503779888153,983.2989609241486,983.6503779888153,982.2745048999786,None,982.2745048999786,None,982.2745048999786,None,-1,-1,1,True,218.73879432678223,441.5407180786133,right,984.8298170566559,None,pp_20,clamp,icub,2022_Jan_10_1029,exp,2021.2.3,60.003404810510844,
right,stop,2,0,2,0,2,4,16,5,985.3511250019073,None,1,1.0188539028167725,985.3511250019073,None,986.4505798816681,None,987.4637970924377,987.7849168777466,987.4637970924377,987.7849168777466,986.4505798816681,None,986.4505798816681,None,986.4505798816681,None,-950,-850,0,True,207.51571655273438,484.91597175598145,right,989.0546898841858,None,pp_20,clamp,icub,2022_Jan_10_1029,exp,2021.2.3,60.003404810510844,
right,go,2,0,2,0,2,5,17,4,989.5745589733124,None,1,1.2611970901489258,989.5745589733124,None,990.921236038208,None,991.9251039028168,992.2854371070862,991.9251039028168,992.2854371070862,990.921236038208,None,990.921236038208,None,990.921236038208,None,-1,-1,1,True,303.9822578430176,571.3415145874023,right,993.7009150981903,None,pp_20,clamp,icub,2022_Jan_10_1029,exp,2021.2.3,60.003404810510844,
left,stop,2,0,2,0,3,0,18,2,994.2133839130402,None,1,1.5896000862121582,994.2133839130402,None,995.9311130046844,None,996.9360399246216,997.2607579231262,996.9360399246216,997.2607579231262,995.9311130046844,None,995.9311130046844,None,995.9311130046844,None,-950,-900,0,True,312.36767768859863,569.23508644104,left,998.7195320129395,None,pp_20,clamp,icub,2022_Jan_10_1029,exp,2021.2.3,60.003404810510844,
right,go,2,0,2,0,3,1,19,4,999.2445359230042,None,1,0.9953649044036865,999.2445359230042,None,1000.3465430736542,None,1001.3786869049072,1001.7306439876556,1001.3786869049072,1001.7306439876556,1000.3465430736542,None,1000.3465430736542,None,1000.3465430736542,None,-1,-1,1,True,277.21571922302246,607.1877479553223,right,1003.1322319507599,None,pp_20,clamp,icub,2022_Jan_10_1029,exp,2021.2.3,60.003404810510844,
right,go,2,0,2,0,3,2,20,3,1003.6651589870453,None,1,0.9108779430389404,1003.6651589870453,None,1004.6987071037292,None,1005.7108058929443,1006.0586540699005,1005.7108058929443,1006.0586540699005,1004.6987071037292,None,1004.6987071037292,None,1004.6987071037292,None,-1,-1,1,True,282.3054790496826,561.9750022888184,right,1007.4178409576416,None,pp_20,clamp,icub,2022_Jan_10_1029,exp,2021.2.3,60.003404810510844,
right,go,2,0,2,0,3,3,21,4,1007.9250249862671,None,1,0.9130699634552002,1007.9250249862671,None,1008.9538938999176,None,1009.9544479846954,1010.3065090179443,1009.9544479846954,1010.3065090179443,1008.9538938999176,None,1008.9538938999176,None,1008.9538938999176,None,-1,-1,1,True,257.3554515838623,367.23899841308594,right,1011.4638829231262,None,pp_20,clamp,icub,2022_Jan_10_1029,exp,2021.2.3,60.003404810510844,
right,go,2,0,2,0,3,4,22,3,1011.9833719730377,None,1,1.7316460609436035,1011.9833719730377,None,1013.8057630062103,None,1014.8143169879913,1015.163763999939,1014.8143169879913,1015.163763999939,1013.8057630062103,None,1013.8057630062103,None,1013.8057630062103,None,-1,-1,1,True,334.53369140625,477.11944580078125,right,1016.5058109760284,None,pp_20,clamp,icub,2022_Jan_10_1029,exp,2021.2.3,60.003404810510844,
left,go,2,0,2,0,3,5,23,0,1017.0196039676666,None,1,0.5363459587097168,1017.0196039676666,None,1017.6797080039978,None,1018.6848230361938,1019.0427069664001,1018.6848230361938,1019.0427069664001,1017.6797080039978,None,1017.6797080039978,None,1017.6797080039978,None,-1,-1,1,True,311.1400604248047,473.6618995666504,left,1020.3580501079559,None,pp_20,clamp,icub,2022_Jan_10_1029,exp,2021.2.3,60.003404810510844,
right,go,2,0,2,0,4,0,24,4,1020.8688058853149,None,1,1.0109100341796875,1020.8688058853149,None,1021.9707028865814,None,1022.9938399791718,1023.3448178768158,1022.9938399791718,1023.3448178768158,1021.9707028865814,None,1021.9707028865814,None,1021.9707028865814,None,-1,-1,1,True,327.92210578918457,449.387788772583,right,1024.636605978012,None,pp_20,clamp,icub,2022_Jan_10_1029,exp,2021.2.3,60.003404810510844,
right,stop,2,0,2,0,4,1,25,5,1025.1652359962463,None,1,0.6826300621032715,1025.1652359962463,None,1025.9550058841705,None,1026.9583048820496,1027.3060450553894,1026.9583048820496,1027.3060450553894,1025.9550058841705,None,1025.9550058841705,None,1025.9550058841705,None,-1000,-900,0,True,341.42041206359863,441.4196014404297,right,1028.6176970005035,None,pp_20,clamp,icub,2022_Jan_10_1029,exp,2021.2.3,60.003404810510844,
right,go,2,0,2,0,4,2,26,3,1029.1245748996735,None,1,0.6923480033874512,1029.1245748996735,None,1029.9172449111938,None,1030.9512729644775,1031.2996258735657,1030.9512729644775,1031.2996258735657,1029.9172449111938,None,1029.9172449111938,None,1029.9172449111938,None,-1,-1,1,True,280.55715560913086,451.51686668395996,right,1032.5288999080658,None,pp_20,clamp,icub,2022_Jan_10_1029,exp,2021.2.3,60.003404810510844,
left,stop,2,0,2,0,4,3,27,2,1033.053771018982,None,1,0.9562191963195801,1033.053771018982,None,1034.0906178951263,None,1035.119059085846,1035.4568049907684,1035.119059085846,1035.4568049907684,1034.0906178951263,None,1034.0906178951263,None,1034.0906178951263,None,-1000,-950,0,True,260.1289749145508,497.3139762878418,left,1036.7252860069275,None,pp_20,clamp,icub,2022_Jan_10_1029,exp,2021.2.3,60.003404810510844,
right,stop,2,0,2,0,4,4,28,5,1037.2414410114288,None,1,0.7173430919647217,1037.2414410114288,None,1038.0910749435425,None,1039.1104590892792,1039.4563579559326,1039.1104590892792,1039.4563579559326,1038.0910749435425,None,1038.0910749435425,None,1038.0910749435425,None,-1050,-950,0,True,226.90200805664062,451.5542984008789,right,1040.6788170337677,None,pp_20,clamp,icub,2022_Jan_10_1029,exp,2021.2.3,60.003404810510844,
left,go,2,0,2,0,4,5,29,1,1041.1987659931183,None,1,0.6465909481048584,1041.1987659931183,None,1041.9306540489197,None,1042.950432062149,1043.305871963501,1042.950432062149,1043.305871963501,1041.9306540489197,None,1041.9306540489197,None,1041.9306540489197,None,-1,-1,1,True,273.01836013793945,581.8119049072266,left,1044.6830649375916,None,pp_20,clamp,icub,2022_Jan_10_1029,exp,2021.2.3,60.003404810510844,
right,stop,2,0,2,0,5,0,30,5,1045.201189994812,None,1,1.3608238697052002,1045.201189994812,None,1046.6707820892334,None,1047.6989378929138,1048.0544970035553,1047.6989378929138,1048.0544970035553,1046.6707820892334,None,1046.6707820892334,None,1046.6707820892334,None,-1050,-1000,0,True,265.40327072143555,477.88119316101074,right,1049.3274619579315,None,pp_20,clamp,icub,2022_Jan_10_1029,exp,2021.2.3,60.003404810510844,
right,go,2,0,2,0,5,1,31,3,1049.8351290225983,None,1,0.8468141555786133,1049.8351290225983,None,1050.8100669384003,None,1051.8063769340515,1052.1554260253906,1051.8063769340515,1052.1554260253906,1050.8100669384003,None,1050.8100669384003,None,1050.8100669384003,None,-1,-1,1,True,229.73108291625977,457.8819274902344,right,1053.4083359241486,None,pp_20,clamp,icub,2022_Jan_10_1029,exp,2021.2.3,60.003404810510844,
right,go,2,0,2,0,5,2,32,4,1053.913125038147,None,1,0.8637499809265137,1053.913125038147,None,1054.8923120498657,None,1055.9252619743347,1056.2788500785828,1055.9252619743347,1056.2788500785828,1054.8923120498657,None,1054.8923120498657,None,1054.8923120498657,None,-1,-1,1,True,208.26983451843262,564.6240711212158,right,1057.5772049427032,None,pp_20,clamp,icub,2022_Jan_10_1029,exp,2021.2.3,60.003404810510844,
left,go,2,0,2,0,5,3,33,0,1058.078449010849,None,1,0.9067361354827881,1058.078449010849,None,1059.112998008728,None,1060.145122051239,1060.5067729949951,1060.145122051239,1060.5067729949951,1059.112998008728,None,1059.112998008728,None,1059.112998008728,None,-1,-1,1,True,255.31506538391113,543.4908866882324,left,1061.7971620559692,None,pp_20,clamp,icub,2022_Jan_10_1029,exp,2021.2.3,60.003404810510844,
right,go,2,0,2,0,5,4,34,3,1062.3027780056,None,1,1.4466688632965088,1062.3027780056,None,1063.8350930213928,None,1064.8379399776459,1065.1634559631348,1064.8379399776459,1065.1634559631348,1063.8350930213928,None,1063.8350930213928,None,1063.8350930213928,None,-1,-1,1,True,265.5825614929199,461.7741107940674,right,1066.460107088089,None,pp_20,clamp,icub,2022_Jan_10_1029,exp,2021.2.3,60.003404810510844,
right,stop,2,0,2,0,5,5,35,5,1066.9975609779358,None,1,1.005321979522705,1066.9975609779358,None,1068.0989389419556,None,1069.1008310317993,1069.4260320663452,1069.1008310317993,1069.4260320663452,1068.0989389419556,None,1068.0989389419556,None,1068.0989389419556,None,-1050,-1050,1,True,281.44121170043945,-1.0,-1,1073.2767899036407,None,pp_20,clamp,icub,2022_Jan_10_1029,exp,2021.2.3,60.003404810510844,
right,go,2,0,2,0,6,0,36,3,1073.8095700740814,None,1,8.024620771408081,1073.8095700740814,None,1081.9701459407806,None,1082.955199956894,1083.3155460357666,1082.955199956894,1083.3155460357666,1081.9701459407806,None,1081.9701459407806,None,1081.9701459407806,None,-1,-1,1,True,64.91303443908691,455.60526847839355,right,1084.3679900169373,None,pp_20,clamp,icub,2022_Jan_10_1029,exp,2021.2.3,60.003404810510844,
left,go,2,0,2,0,6,1,37,0,1084.8693668842316,None,1,1.3524091243743896,1084.8693668842316,None,1086.3394238948822,None,1087.3618559837341,1087.6871309280396,1087.3618559837341,1087.6871309280396,1086.3394238948822,None,1086.3394238948822,None,1086.3394238948822,None,-1,-1,1,True,185.64963340759277,476.6082763671875,left,1088.8739120960236,None,pp_20,clamp,icub,2022_Jan_10_1029,exp,2021.2.3,60.003404810510844,
left,go,2,0,2,0,6,2,38,1,1089.3941469192505,None,1,1.0875828266143799,1089.3941469192505,None,1090.557184934616,None,1091.5614380836487,1091.911525964737,1091.5614380836487,1091.911525964737,1090.557184934616,None,1090.557184934616,None,1090.557184934616,None,-1,-1,1,True,197.55172729492188,570.5304145812988,left,1093.211893081665,None,pp_20,clamp,icub,2022_Jan_10_1029,exp,2021.2.3,60.003404810510844,
right,go,2,0,2,0,6,3,39,3,1093.7377669811249,None,1,0.5537660121917725,1093.7377669811249,None,1094.3975789546967,None,1095.3953149318695,1095.7510380744934,1095.3953149318695,1095.7510380744934,1094.3975789546967,None,1094.3975789546967,None,1094.3975789546967,None,-1,-1,1,True,155.34543991088867,531.5811634063721,right,1096.9832739830017,None,pp_20,clamp,icub,2022_Jan_10_1029,exp,2021.2.3,60.003404810510844,
left,stop,2,0,2,0,6,4,40,2,1097.5003769397736,None,1,0.6545741558074951,1097.5003769397736,None,1098.2882180213928,None,1099.290983915329,1099.6460959911346,1099.290983915329,1099.6460959911346,1098.2882180213928,None,1098.2882180213928,None,1098.2882180213928,None,-1050,-1000,0,True,264.6749019622803,394.05369758605957,left,1100.8414630889893,None,pp_20,clamp,icub,2022_Jan_10_1029,exp,2021.2.3,60.003404810510844,
left,go,2,0,2,0,6,5,41,1,1101.35755610466,None,1,0.9881141185760498,1101.35755610466,None,1102.4551560878754,None,1103.4487609863281,1103.7986540794373,1103.4487609863281,1103.7986540794373,1102.4551560878754,None,1102.4551560878754,None,1102.4551560878754,None,-1,-1,1,True,299.8535633087158,411.56625747680664,left,1105.0734369754791,None,pp_20,clamp,icub,2022_Jan_10_1029,exp,2021.2.3,60.003404810510844,
right,go,2,0,2,0,7,0,42,4,1105.5915689468384,None,1,0.7611398696899414,1105.5915689468384,None,1106.4439489841461,None,1107.4771790504456,1107.8372230529785,1107.4771790504456,1107.8372230529785,1106.4439489841461,None,1106.4439489841461,None,1106.4439489841461,None,-1,-1,1,True,290.1263236999512,508.52513313293457,right,1109.1253910064697,None,pp_20,clamp,icub,2022_Jan_10_1029,exp,2021.2.3,60.003404810510844,
left,stop,2,0,2,0,7,1,43,2,1109.6292209625244,None,1,0.646298885345459,1109.6292209625244,None,1110.3607580661774,None,1111.3678839206696,1111.730267047882,1111.3678839206696,1111.730267047882,1110.3607580661774,None,1110.3607580661774,None,1110.3607580661774,None,-1100,-1000,0,True,294.6004867553711,513.3969783782959,left,1113.07603597641,None,pp_20,clamp,icub,2022_Jan_10_1029,exp,2021.2.3,60.003404810510844,
left,stop,2,0,2,0,7,2,44,2,1113.5984299182892,None,1,0.5043079853057861,1113.5984299182892,None,1114.2042980194092,None,1115.2263538837433,1115.590430021286,1115.2263538837433,1115.590430021286,1114.2042980194092,None,1114.2042980194092,None,1114.2042980194092,None,-1150,-1000,1,True,378.5674571990967,-1.0,-1,1119.4680728912354,None,pp_20,clamp,icub,2022_Jan_10_1029,exp,2021.2.3,60.003404810510844,
right,go,2,0,2,0,7,3,45,3,1119.9626679420471,None,1,1.682446002960205,1119.9626679420471,None,1121.7533569335938,None,1122.7592780590057,1123.0995359420776,1122.7592780590057,1123.0995359420776,1121.7533569335938,None,1121.7533569335938,None,1121.7533569335938,None,-1,-1,1,True,364.7875785827637,466.0673141479492,right,1124.4612629413605,None,pp_20,clamp,icub,2022_Jan_10_1029,exp,2021.2.3,60.003404810510844,
left,go,2,0,2,0,7,4,46,1,1124.9649789333344,None,1,0.9904918670654297,1124.9649789333344,None,1126.0646810531616,None,1127.0915079116821,1127.4382309913635,1127.0915079116821,1127.4382309913635,1126.0646810531616,None,1126.0646810531616,None,1126.0646810531616,None,-1,-1,1,True,284.30891036987305,385.9829902648926,left,1128.6230149269104,None,pp_20,clamp,icub,2022_Jan_10_1029,exp,2021.2.3,60.003404810510844,
left,stop,2,0,2,0,7,5,47,2,1129.1374299526215,None,1,0.7121891975402832,1129.1374299526215,None,1129.9871549606323,None,1130.9949760437012,1131.3604109287262,1130.9949760437012,1131.3604109287262,1129.9871549606323,None,1129.9871549606323,None,1129.9871549606323,None,-1100,-1000,1,True,246.69456481933594,-1.0,-1,1135.1396188735962,None,pp_20,clamp,icub,2022_Jan_10_1029,exp,2021.2.3,60.003404810510844,
right,go,2,0,2,0,8,0,48,4,1135.6733260154724,None,1,2.009817123413086,1135.6733260154724,None,1137.769942998886,None,1138.7597110271454,1139.114336013794,1138.7597110271454,1139.114336013794,1137.769942998886,None,1137.769942998886,None,1137.769942998886,None,-1,-1,1,True,305.5436611175537,409.10935401916504,right,1140.3630509376526,None,pp_20,clamp,icub,2022_Jan_10_1029,exp,2021.2.3,60.003404810510844,
left,go,2,0,2,0,8,1,49,0,1140.8768730163574,None,1,1.7967989444732666,1140.8768730163574,None,1142.7806000709534,None,1143.7804310321808,1144.1398038864136,1143.7804310321808,1144.1398038864136,1142.7806000709534,None,1142.7806000709534,None,1142.7806000709534,None,-1,-1,1,True,280.0297737121582,346.6448783874512,left,1145.2949740886688,None,pp_20,clamp,icub,2022_Jan_10_1029,exp,2021.2.3,60.003404810510844,
right,stop,2,0,2,0,8,2,50,5,1145.8030779361725,None,1,0.7924449443817139,1145.8030779361725,None,1146.702395915985,None,1147.7321150302887,1148.068883895874,1147.7321150302887,1148.068883895874,1146.702395915985,None,1146.702395915985,None,1146.702395915985,None,-1050,-1000,1,True,343.1828022003174,-1.0,-1,1151.9417278766632,None,pp_20,clamp,icub,2022_Jan_10_1029,exp,2021.2.3,60.003404810510844,
left,go,2,0,2,0,8,3,51,1,1152.4730429649353,None,1,1.5770330429077148,1152.4730429649353,None,1154.138827085495,None,1155.1140298843384,1155.4652938842773,1155.1140298843384,1155.4652938842773,1154.138827085495,None,1154.138827085495,None,1154.138827085495,None,-1,-1,1,True,267.9152488708496,527.0874500274658,left,1156.8311660289764,None,pp_20,clamp,icub,2022_Jan_10_1029,exp,2021.2.3,60.003404810510844,
right,go,2,0,2,0,8,4,52,3,1157.3489270210266,None,1,0.915546178817749,1157.3489270210266,None,1158.3698499202728,None,1159.3659689426422,1159.716334104538,1159.3659689426422,1159.716334104538,1158.3698499202728,None,1158.3698499202728,None,1158.3698499202728,None,-1,-1,1,True,320.49560546875,362.52498626708984,right,1160.933974981308,None,pp_20,clamp,icub,2022_Jan_10_1029,exp,2021.2.3,60.003404810510844,
right,stop,2,0,2,0,8,5,53,5,1161.4504730701447,None,1,0.8589050769805908,1161.4504730701447,None,1162.4284598827362,None,1163.4413299560547,1163.7936780452728,1163.4413299560547,1163.7936780452728,1162.4284598827362,None,1162.4284598827362,None,1162.4284598827362,None,-1050,-950,1,True,336.8051052093506,-1.0,-1,1167.6536700725555,None,pp_20,clamp,icub,2022_Jan_10_1029,exp,2021.2.3,60.003404810510844,
right,stop,2,0,2,0,9,0,54,5,1168.1848220825195,None,1,0.9351480007171631,1168.1848220825195,None,1169.2303431034088,None,1170.2151610851288,1170.5826399326324,1170.2151610851288,1170.5826399326324,1169.2303431034088,None,1169.2303431034088,None,1169.2303431034088,None,-1050,-900,1,True,316.5750503540039,-1.0,-1,1174.4208760261536,None,pp_20,clamp,icub,2022_Jan_10_1029,exp,2021.2.3,60.003404810510844,
left,stop,2,0,2,0,9,1,55,2,1174.953684091568,None,1,0.8763527870178223,1174.953684091568,None,1175.9378180503845,None,1176.9128239154816,1177.263011932373,1176.9128239154816,1177.263011932373,1175.9378180503845,None,1175.9378180503845,None,1175.9378180503845,None,-1050,-850,1,True,271.04640007019043,-1.0,-1,1181.102520942688,None,pp_20,clamp,icub,2022_Jan_10_1029,exp,2021.2.3,60.003404810510844,
right,go,2,0,2,0,9,2,56,4,1181.6350960731506,None,1,0.7878909111022949,1181.6350960731506,None,1182.5565860271454,None,1183.5435590744019,1183.8936259746552,1183.5435590744019,1183.8936259746552,1182.5565860271454,None,1182.5565860271454,None,1182.5565860271454,None,-1,-1,1,True,296.28586769104004,442.98362731933594,right,1185.1669158935547,None,pp_20,clamp,icub,2022_Jan_10_1029,exp,2021.2.3,60.003404810510844,
left,go,2,0,2,0,9,3,57,1,1185.6740729808807,None,1,1.1379830837249756,1185.6740729808807,None,1186.8975019454956,None,1187.9197680950165,1188.2802488803864,1187.9197680950165,1188.2802488803864,1186.8975019454956,None,1186.8975019454956,None,1186.8975019454956,None,-1,-1,1,True,331.44688606262207,407.52243995666504,left,1189.5449318885803,None,pp_20,clamp,icub,2022_Jan_10_1029,exp,2021.2.3,60.003404810510844,
left,go,2,0,2,0,9,4,58,1,1190.056977033615,None,1,0.9446229934692383,1190.056977033615,None,1191.0948569774628,None,1192.1028881072998,1192.4580700397491,1192.1028881072998,1192.4580700397491,1191.0948569774628,None,1191.0948569774628,None,1191.0948569774628,None,-1,-1,1,True,305.0520420074463,492.8159713745117,left,1193.7828810214996,None,pp_20,clamp,icub,2022_Jan_10_1029,exp,2021.2.3,60.003404810510844,
left,stop,2,0,2,0,9,5,59,2,1194.3077969551086,None,1,1.0760841369628906,1194.3077969551086,None,1195.4691488742828,None,1196.4624729156494,1196.8210780620575,1196.4624729156494,1196.8210780620575,1195.4691488742828,None,1195.4691488742828,None,1195.4691488742828,None,-1000,-850,1,True,292.45758056640625,-1.0,-1,1200.666976928711,None,pp_20,clamp,icub,2022_Jan_10_1029,exp,2021.2.3,60.003404810510844,
right,stop,2,0,2,0,10,0,60,5,1201.198781967163,None,1,3.049403190612793,1201.198781967163,None,1204.3440370559692,None,1205.3183019161224,1205.675733089447,1205.3183019161224,1205.675733089447,1204.3440370559692,None,1204.3440370559692,None,1204.3440370559692,None,-950,-850,1,True,291.86248779296875,-1.0,-1,1209.4994719028473,None,pp_20,clamp,icub,2022_Jan_10_1029,exp,2021.2.3,60.003404810510844,
right,go,2,0,2,0,10,1,61,3,1210.0317850112915,None,1,1.2091560363769531,1210.0317850112915,None,1211.3252699375153,None,1212.3033609390259,1212.6543309688568,1212.3033609390259,1212.6543309688568,1211.3252699375153,None,1211.3252699375153,None,1211.3252699375153,None,-1,-1,1,True,329.3125629425049,403.08189392089844,right,1213.9575181007385,None,pp_20,clamp,icub,2022_Jan_10_1029,exp,2021.2.3,60.003404810510844,
left,go,2,0,2,0,10,2,62,1,1214.464035987854,None,1,1.1044199466705322,1214.464035987854,None,1215.684091091156,None,1216.6984419822693,1217.0310819149017,1216.6984419822693,1217.0310819149017,1215.684091091156,None,1215.684091091156,None,1215.684091091156,None,-1,-1,1,True,321.8657970428467,466.9473171234131,left,1218.3466908931732,None,pp_20,clamp,icub,2022_Jan_10_1029,exp,2021.2.3,60.003404810510844,
right,stop,2,0,2,0,10,3,63,5,1218.8534049987793,None,1,0.7318580150604248,1218.8534049987793,None,1219.7045619487762,None,1220.7084529399872,1221.03835105896,1220.7084529399872,1221.03835105896,1219.7045619487762,None,1219.7045619487762,None,1219.7045619487762,None,-950,-800,1,True,380.5270195007324,-1.0,-1,1224.990863084793,None,pp_20,clamp,icub,2022_Jan_10_1029,exp,2021.2.3,60.003404810510844,
left,go,2,0,2,0,10,4,64,0,1225.5235710144043,None,1,2.8462600708007812,1225.5235710144043,None,1228.4893209934235,None,1229.4989709854126,1229.8397810459137,1229.4989709854126,1229.8397810459137,1228.4893209934235,None,1228.4893209934235,None,1228.4893209934235,None,-1,-1,1,True,284.6639156341553,508.7265968322754,left,1231.1647140979767,None,pp_20,clamp,icub,2022_Jan_10_1029,exp,2021.2.3,60.003404810510844,
right,stop,2,0,2,0,10,5,65,5,1231.6871130466461,None,1,0.7871100902557373,1231.6871130466461,None,1232.5971510410309,None,1233.615310907364,1233.9713139533997,1233.615310907364,1233.9713139533997,1232.5971510410309,None,1232.5971510410309,None,1232.5971510410309,None,-950,-750,1,True,246.25158309936523,-1.0,-1,1237.737727880478,None,pp_20,clamp,icub,2022_Jan_10_1029,exp,2021.2.3,60.003404810510844,
left,go,2,0,2,0,11,0,66,1,1238.2697060108185,None,1,0.7080271244049072,1238.2697060108185,None,1239.067899942398,None,1240.0428590774536,1240.3983628749847,1240.0428590774536,1240.3983628749847,1239.067899942398,None,1239.067899942398,None,1239.067899942398,None,-1,-1,1,True,293.0729389190674,392.09699630737305,left,1241.6168539524078,None,pp_20,clamp,icub,2022_Jan_10_1029,exp,2021.2.3,60.003404810510844,
right,go,2,0,2,0,11,1,67,4,1242.1350219249725,None,1,0.7033450603485107,1242.1350219249725,None,1242.9355700016022,None,1243.9448690414429,1244.3079779148102,1243.9448690414429,1244.3079779148102,1242.9355700016022,None,1242.9355700016022,None,1242.9355700016022,None,-1,-1,1,True,243.23773384094238,412.69659996032715,right,1245.492518901825,None,pp_20,clamp,icub,2022_Jan_10_1029,exp,2021.2.3,60.003404810510844,
left,go,2,0,2,0,11,2,68,0,1245.9999859333038,None,1,0.7027230262756348,1245.9999859333038,None,1246.791687965393,None,1247.820925951004,1248.1639840602875,1247.820925951004,1248.1639840602875,1246.791687965393,None,1246.791687965393,None,1246.791687965393,None,-1,-1,1,True,230.65733909606934,511.21973991394043,left,1249.4277260303497,None,pp_20,clamp,icub,2022_Jan_10_1029,exp,2021.2.3,60.003404810510844,
left,stop,2,0,2,0,11,3,69,2,1249.948143005371,None,1,0.6972861289978027,1249.948143005371,None,1250.7391080856323,None,1251.7384850978851,1252.093710899353,1251.7384850978851,1252.093710899353,1250.7391080856323,None,1250.7391080856323,None,1250.7391080856323,None,-950,-700,1,True,254.03475761413574,-1.0,-1,1255.8711318969727,None,pp_20,clamp,icub,2022_Jan_10_1029,exp,2021.2.3,60.003404810510844,
right,go,2,0,2,0,11,4,70,3,1256.4037029743195,None,1,1.22501802444458,1256.4037029743195,None,1257.7587950229645,None,1258.7359719276428,1259.085844039917,1258.7359719276428,1259.085844039917,1257.7587950229645,None,1257.7587950229645,None,1257.7587950229645,None,-1,-1,1,True,352.4806499481201,369.85063552856445,right,1260.3808290958405,None,pp_20,clamp,icub,2022_Jan_10_1029,exp,2021.2.3,60.003404810510844,
left,go,2,0,2,0,11,5,71,0,1260.886069059372,None,1,0.7540249824523926,1260.886069059372,None,1261.7404129505157,None,1262.7317960262299,1263.08052110672,1262.7317960262299,1263.08052110672,1261.7404129505157,None,1261.7404129505157,None,1261.7404129505157,None,-1,-1,1,True,257.83538818359375,395.1752185821533,left,1264.2696380615234,None,pp_20,clamp,icub,2022_Jan_10_1029,exp,2021.2.3,60.003404810510844,
left,go,2,0,2,0,12,0,72,1,1264.7900738716125,None,1,0.6110730171203613,1264.7900738716125,None,1265.5166199207306,None,1266.5503959655762,1266.9099750518799,1266.5503959655762,1266.9099750518799,1265.5166199207306,None,1265.5166199207306,None,1265.5166199207306,None,-1,-1,1,True,257.0071220397949,369.94290351867676,left,1268.0287671089172,None,pp_20,clamp,icub,2022_Jan_10_1029,exp,2021.2.3,60.003404810510844,
right,stop,2,0,2,0,12,1,73,5,1268.5334520339966,None,1,0.5867018699645996,1268.5334520339966,None,1269.2006709575653,None,1270.1948959827423,1270.5369260311127,1270.1948959827423,1270.5369260311127,1269.2006709575653,None,1269.2006709575653,None,1269.2006709575653,None,-900,-700,1,True,270.7791328430176,-1.0,-1,1274.3739850521088,None,pp_20,clamp,icub,2022_Jan_10_1029,exp,2021.2.3,60.003404810510844,
left,stop,2,0,2,0,12,2,74,2,1274.9054501056671,None,1,1.2421660423278809,1274.9054501056671,None,1276.2599909305573,None,1277.2425789833069,1277.595515012741,1277.2425789833069,1277.595515012741,1276.2599909305573,None,1276.2599909305573,None,1276.2599909305573,None,-900,-650,1,True,147.12166786193848,-1.0,-1,1281.3023619651794,None,pp_20,clamp,icub,2022_Jan_10_1029,exp,2021.2.3,60.003404810510844,
left,go,2,0,2,0,12,3,75,0,1281.8366630077362,None,1,0.7022340297698975,1281.8366630077362,None,1282.635880947113,None,1283.6207160949707,1283.9772279262543,1283.6207160949707,1283.9772279262543,1282.635880947113,None,1282.635880947113,None,1282.635880947113,None,-1,-1,1,True,313.9793872833252,395.08843421936035,left,1285.2134959697723,None,pp_20,clamp,icub,2022_Jan_10_1029,exp,2021.2.3,60.003404810510844,
right,go,2,0,2,0,12,4,76,3,1285.7402050495148,None,1,0.4096260070800781,1285.7402050495148,None,1286.2787079811096,None,1287.2869908809662,1287.6400408744812,1287.2869908809662,1287.6400408744812,1286.2787079811096,None,1286.2787079811096,None,1286.2787079811096,None,-1,-1,1,True,176.51796340942383,443.711519241333,right,1288.7925610542297,None,pp_20,clamp,icub,2022_Jan_10_1029,exp,2021.2.3,60.003404810510844,
left,go,2,0,2,0,12,5,77,1,1289.3110918998718,None,1,0.9418981075286865,1289.3110918998718,None,1290.3532049655914,None,1291.377417087555,1291.7006719112396,1291.377417087555,1291.7006719112396,1290.3532049655914,None,1290.3532049655914,None,1290.3532049655914,None,-1,-1,1,True,235.34703254699707,393.3591842651367,left,1292.8724629878998,None,pp_20,clamp,icub,2022_Jan_10_1029,exp,2021.2.3,60.003404810510844,
left,stop,3,0,3,0,0,0,0,2,1307.1148068904877,None,1,13.509273052215576,1307.1148068904877,None,1320.7622220516205,None,None,None,None,None,1320.7622220516205,None,1320.7622220516205,None,1320.7622220516205,None,,,0,False,-1.0,-1.0,-1,1320.8969099521637,None,pp_20,clamp,icub,2022_Jan_10_1029,exp,2021.2.3,60.003404810510844,
right,go,3,0,3,0,0,1,1,3,1321.429398059845,None,1,1.3260469436645508,1321.429398059845,None,1322.8468179702759,None,1323.84241604805,1324.1991999149323,1323.84241604805,1324.1991999149323,1322.8468179702759,None,1322.8468179702759,None,1322.8468179702759,None,-1,-1,1,True,323.0931758880615,444.9748992919922,right,1325.5043420791626,None,pp_20,clamp,icub,2022_Jan_10_1029,exp,2021.2.3,60.003404810510844,
right,go,3,0,3,0,0,2,2,4,1326.0158939361572,None,1,2.0089070796966553,1326.0158939361572,None,1328.1415688991547,None,1329.1490778923035,1329.514326095581,1329.1490778923035,1329.514326095581,1328.1415688991547,None,1328.1415688991547,None,1328.1415688991547,None,-1,-1,1,True,243.33786964416504,405.1065444946289,right,1330.687684059143,None,pp_20,clamp,icub,2022_Jan_10_1029,exp,2021.2.3,60.003404810510844,
left,stop,3,0,3,0,0,3,3,2,1331.2088179588318,None,1,0.6361629962921143,1331.2088179588318,None,1331.934242963791,None,1332.9631838798523,1333.3254408836365,1332.9631838798523,1333.3254408836365,1331.934242963791,None,1331.934242963791,None,1331.934242963791,None,-850,-650,1,True,227.03027725219727,-1.0,-1,1337.0617649555206,None,pp_20,clamp,icub,2022_Jan_10_1029,exp,2021.2.3,60.003404810510844,
right,go,3,0,3,0,0,4,4,3,1337.5940670967102,None,1,0.70831298828125,1337.5940670967102,None,1338.3945000171661,None,1339.3732659816742,1339.7171490192413,1339.3732659816742,1339.7171490192413,1338.3945000171661,None,1338.3945000171661,None,1338.3945000171661,None,-1,-1,1,True,230.44395446777344,374.59254264831543,right,1340.8883950710297,None,pp_20,clamp,icub,2022_Jan_10_1029,exp,2021.2.3,60.003404810510844,
right,stop,3,0,3,0,0,5,5,5,1341.4134728908539,None,1,1.7671420574188232,1341.4134728908539,None,1343.3129889965057,None,1344.3154520988464,1344.6381800174713,1344.3154520988464,1344.6381800174713,1343.3129889965057,None,1343.3129889965057,None,1343.3129889965057,None,-800,-650,1,True,249.37820434570312,-1.0,-1,1348.4459428787231,None,pp_20,clamp,icub,2022_Jan_10_1029,exp,2021.2.3,60.003404810510844,
right,stop,3,0,3,0,1,0,6,5,1348.9780759811401,None,1,0.5902769565582275,1348.9780759811401,None,1349.652302980423,None,1350.63463306427,1350.993402004242,1350.63463306427,1350.993402004242,1349.652302980423,None,1349.652302980423,None,1349.652302980423,None,-800,-600,1,True,226.95064544677734,-1.0,-1,1354.7446730136871,None,pp_20,clamp,icub,2022_Jan_10_1029,exp,2021.2.3,60.003404810510844,
left,go,3,0,3,0,1,1,7,0,1355.2791619300842,None,1,0.5921478271484375,1355.2791619300842,None,1355.9535019397736,None,1356.9376809597015,1357.3022289276123,1356.9376809597015,1357.3022289276123,1355.9535019397736,None,1355.9535019397736,None,1355.9535019397736,None,-1,-1,1,True,162.83464431762695,539.5255088806152,left,1358.5331449508667,None,pp_20,clamp,icub,2022_Jan_10_1029,exp,2021.2.3,60.003404810510844,
right,stop,3,0,3,0,1,2,8,5,1359.034765958786,None,1,1.082854986190796,1359.034765958786,None,1360.2411460876465,None,1361.2473690509796,1361.6042840480804,1361.2473690509796,1361.6042840480804,1360.2411460876465,None,1360.2411460876465,None,1360.2411460876465,None,-800,-550,1,True,313.24172019958496,-1.0,-1,1365.4477560520172,None,pp_20,clamp,icub,2022_Jan_10_1029,exp,2021.2.3,60.003404810510844,
left,stop,3,0,3,0,1,3,9,2,1365.9818580150604,None,1,0.751457929611206,1365.9818580150604,None,1366.8418500423431,None,1367.828845024109,1368.156979084015,1367.828845024109,1368.156979084015,1366.8418500423431,None,1366.8418500423431,None,1366.8418500423431,None,-800,-500,1,True,264.77742195129395,-1.0,-1,1371.9972410202026,None,pp_20,clamp,icub,2022_Jan_10_1029,exp,2021.2.3,60.003404810510844,
