Holder,Action,blocks.thisRepN,blocks.thisTrialN,blocks.thisN,blocks.thisIndex,trials.thisRepN,trials.thisTrialN,trials.thisN,trials.thisIndex,start_msg.started,start_msg.stopped,RespButton_start_trial.keys,RespButton_start_trial.rt,RespButton_start_trial.started,RespButton_start_trial.stopped,GREEN.started,GREEN.stopped,LEFT_RED.started,LEFT_RED.stopped,RIGHT_RED.started,RIGHT_RED.stopped,LEFT_CIRCLE.started,LEFT_CIRCLE.stopped,CENTER_CIRCLE.started,CENTER_CIRCLE.stopped,RIGHT_CIRCLE.started,RIGHT_CIRCLE.stopped,SOUND_DELAY_MS_LEFT,SOUND_DELAY_MS_RIGHT,CORRECT,VALIDITY,RELEASE_TIME,TOUCH_TIME,BOTTLE_RESPONSE_POSITION,text.started,text.stopped,pid,left_position,right_position,date,expName,psychopyVersion,frameRate,
left,go,0,0,0,0,0,0,0,1,63.66674184799194,None,1,19.843902826309204,63.66674184799194,None,83.60371994972229,None,84.63823199272156,84.99899888038635,84.63823199272156,84.99899888038635,83.60371994972229,None,83.60371994972229,None,83.60371994972229,None,-1,-1,1,True,328.1395435333252,743.5750961303711,left,86.56619501113892,None,pp_21,clamp,icub,2022_Jan_10_1135,exp,2021.2.3,59.930443430276256,
left,stop,0,0,0,0,0,1,1,2,87.08499503135681,None,1,0.6686320304870605,87.08499503135681,None,87.87230396270752,None,88.8685200214386,89.22757887840271,88.8685200214386,89.22757887840271,87.87230396270752,None,87.87230396270752,None,87.87230396270752,None,500,500,0,True,281.5983295440674,628.4897327423096,left,90.6700530052185,None,pp_21,clamp,icub,2022_Jan_10_1135,exp,2021.2.3,59.930443430276256,
right,go,0,0,0,0,0,2,2,3,91.16820693016052,None,1,0.7743360996246338,91.16820693016052,None,92.02302885055542,None,93.04898190498352,93.40591883659363,93.04898190498352,93.40591883659363,92.02302885055542,None,92.02302885055542,None,92.02302885055542,None,-1,-1,1,True,528.0940532684326,602.196455001831,right,95.03049993515015,None,pp_21,clamp,icub,2022_Jan_10_1135,exp,2021.2.3,59.930443430276256,
right,stop,0,0,0,0,0,3,3,5,95.52555894851685,None,1,0.3973569869995117,95.52555894851685,None,96.00834894180298,None,97.02970790863037,97.3778088092804,97.02970790863037,97.3778088092804,96.00834894180298,None,96.00834894180298,None,96.00834894180298,None,450,500,0,True,300.1360893249512,633.3034038543701,right,98.83684396743774,None,pp_21,clamp,icub,2022_Jan_10_1135,exp,2021.2.3,59.930443430276256,
left,stop,0,0,0,0,0,4,4,2,99.34080100059509,None,1,0.42363905906677246,99.34080100059509,None,99.87682700157166,None,100.87549996376038,101.22726392745972,100.87549996376038,101.22726392745972,99.87682700157166,None,99.87682700157166,None,99.87682700157166,None,450,450,1,True,362.4072074890137,-1.0,-1,105.11852192878723,None,pp_21,clamp,icub,2022_Jan_10_1135,exp,2021.2.3,59.930443430276256,
right,go,0,0,0,0,0,5,5,4,105.61225199699402,None,1,0.5630028247833252,105.61225199699402,None,106.2858579158783,None,107.2597279548645,107.61904501914978,107.2597279548645,107.61904501914978,106.2858579158783,None,106.2858579158783,None,106.2858579158783,None,-1,-1,1,True,326.5798091888428,679.8305511474609,right,109.15521192550659,None,pp_21,clamp,icub,2022_Jan_10_1135,exp,2021.2.3,59.930443430276256,
left,go,0,0,0,0,1,0,6,1,109.68074083328247,None,1,0.2844889163970947,109.68074083328247,None,110.0932309627533,None,111.1114809513092,111.45793199539185,111.1114809513092,111.45793199539185,110.0932309627533,None,110.0932309627533,None,110.0932309627533,None,-1,-1,1,True,512.8657817840576,790.2393341064453,left,113.28285002708435,None,pp_21,clamp,icub,2022_Jan_10_1135,exp,2021.2.3,59.930443430276256,
left,go,0,0,0,0,1,1,7,0,113.79217290878296,None,1,0.36364006996154785,113.79217290878296,None,114.2708728313446,None,115.29047584533691,115.63802480697632,115.29047584533691,115.63802480697632,114.2708728313446,None,114.2708728313446,None,114.2708728313446,None,-1,-1,1,True,289.2909049987793,666.015625,left,117.12285494804382,None,pp_21,clamp,icub,2022_Jan_10_1135,exp,2021.2.3,59.930443430276256,
right,go,0,0,0,0,1,2,8,4,117.63359689712524,None,1,0.7248339653015137,117.63359689712524,None,118.48661303520203,None,119.51081490516663,119.85722088813782,119.51081490516663,119.85722088813782,118.48661303520203,None,118.48661303520203,None,118.48661303520203,None,-1,-1,1,True,469.4669246673584,631.828784942627,right,121.48394584655762,None,pp_21,clamp,icub,2022_Jan_10_1135,exp,2021.2.3,59.930443430276256,
right,stop,0,0,0,0,1,3,9,5,121.99968981742859,None,1,0.40587401390075684,121.99968981742859,None,122.4860680103302,None,123.51556396484375,123.88588285446167,123.51556396484375,123.88588285446167,122.4860680103302,None,122.4860680103302,None,122.4860680103302,None,500,450,0,True,198.85897636413574,611.8614673614502,right,125.19010782241821,None,pp_21,clamp,icub,2022_Jan_10_1135,exp,2021.2.3,59.930443430276256,
right,go,0,0,0,0,1,4,10,3,125.71477484703064,None,1,0.9920749664306641,125.71477484703064,None,126.81373500823975,None,127.80916285514832,128.17370700836182,127.80916285514832,128.17370700836182,126.81373500823975,None,126.81373500823975,None,126.81373500823975,None,-1,-1,1,True,504.8484802246094,770.0846195220947,right,129.982430934906,None,pp_21,clamp,icub,2022_Jan_10_1135,exp,2021.2.3,59.930443430276256,
right,go,0,0,0,0,1,5,11,4,130.49532389640808,None,1,0.5978140830993652,130.49532389640808,None,131.2152659893036,None,132.23230695724487,132.57935285568237,132.23230695724487,132.57935285568237,131.2152659893036,None,131.2152659893036,None,131.2152659893036,None,-1,-1,1,True,315.105676651001,642.7552700042725,right,134.06820392608643,None,pp_21,clamp,icub,2022_Jan_10_1135,exp,2021.2.3,59.930443430276256,
right,stop,0,0,0,0,2,0,12,5,134.57072687149048,None,1,0.24697017669677734,134.57072687149048,None,134.92661690711975,None,135.93638801574707,136.29227995872498,135.93638801574707,136.29227995872498,134.92661690711975,None,134.92661690711975,None,134.92661690711975,None,500,400,1,True,483.49714279174805,-1.0,-1,140.3070409297943,None,pp_21,clamp,icub,2022_Jan_10_1135,exp,2021.2.3,59.930443430276256,
left,go,0,0,0,0,2,1,13,0,140.83707094192505,None,1,0.4680628776550293,140.83707094192505,None,141.3872230052948,None,142.36931490898132,142.7404818534851,142.36931490898132,142.7404818534851,141.3872230052948,None,141.3872230052948,None,141.3872230052948,None,-1,-1,1,True,214.17665481567383,528.3079147338867,left,144.00722694396973,None,pp_21,clamp,icub,2022_Jan_10_1135,exp,2021.2.3,59.930443430276256,
left,go,0,0,0,0,2,2,14,1,144.52397894859314,None,1,0.5283510684967041,144.52397894859314,None,145.18523788452148,None,146.2081208229065,146.55512881278992,146.2081208229065,146.55512881278992,145.18523788452148,None,145.18523788452148,None,145.18523788452148,None,-1,-1,1,True,441.6987895965576,1250.9570121765137,left,148.76428294181824,None,pp_21,clamp,icub,2022_Jan_10_1135,exp,2021.2.3,59.930443430276256,
left,go,0,0,0,0,2,3,15,1,149.27804684638977,None,1,0.9958510398864746,149.27804684638977,None,150.37605786323547,None,151.38970804214478,151.74585485458374,151.38970804214478,151.74585485458374,150.37605786323547,None,150.37605786323547,None,150.37605786323547,None,-1,-1,1,True,333.829402923584,912.2292995452881,left,153.49664998054504,None,pp_21,clamp,icub,2022_Jan_10_1135,exp,2021.2.3,59.930443430276256,
left,go,0,0,0,0,2,4,16,0,154.0043318271637,None,1,0.4463670253753662,154.0043318271637,None,154.54470586776733,None,155.56145787239075,155.91381192207336,155.56145787239075,155.91381192207336,154.54470586776733,None,154.54470586776733,None,154.54470586776733,None,-1,-1,1,True,352.75888442993164,611.8218898773193,left,157.40816593170166,None,pp_21,clamp,icub,2022_Jan_10_1135,exp,2021.2.3,59.930443430276256,
right,go,0,0,0,0,2,5,17,4,157.9105179309845,None,1,0.6009070873260498,157.9105179309845,None,158.6354398727417,None,159.64390087127686,159.98731398582458,159.64390087127686,159.98731398582458,158.6354398727417,None,158.6354398727417,None,158.6354398727417,None,-1,-1,1,True,347.03755378723145,581.3069343566895,right,161.45996403694153,None,pp_21,clamp,icub,2022_Jan_10_1135,exp,2021.2.3,59.930443430276256,
left,go,0,0,0,0,3,0,18,0,161.97966980934143,None,1,0.23885416984558105,161.97966980934143,None,162.33754897117615,None,163.3433539867401,163.7092158794403,163.3433539867401,163.7092158794403,162.33754897117615,None,162.33754897117615,None,162.33754897117615,None,,,0,False,-1.0,-1.0,-1,164.07444596290588,None,pp_21,clamp,icub,2022_Jan_10_1135,exp,2021.2.3,59.930443430276256,
left,go,0,0,0,0,3,1,19,1,164.60537099838257,None,1,1.688999891281128,164.60537099838257,None,166.4104869365692,None,167.43806982040405,167.78890800476074,167.43806982040405,167.78890800476074,166.4104869365692,None,166.4104869365692,None,166.4104869365692,None,-1,-1,1,True,428.85279655456543,660.6462001800537,left,169.39826893806458,None,pp_21,clamp,icub,2022_Jan_10_1135,exp,2021.2.3,59.930443430276256,
left,stop,0,0,0,0,3,2,20,2,169.91826581954956,None,1,0.3611268997192383,169.91826581954956,None,170.3956229686737,None,171.40751194953918,171.76780486106873,171.40751194953918,171.76780486106873,170.3956229686737,None,170.3956229686737,None,170.3956229686737,None,500,450,1,True,212.01109886169434,-1.0,-1,175.50245785713196,None,pp_21,clamp,icub,2022_Jan_10_1135,exp,2021.2.3,59.930443430276256,
right,stop,0,0,0,0,3,3,21,5,176.0321910381317,None,1,0.09690213203430176,176.0321910381317,None,176.21112394332886,None,177.19297194480896,177.55136489868164,177.19297194480896,177.55136489868164,176.21112394332886,None,176.21112394332886,None,176.21112394332886,None,550,450,0,True,273.543119430542,605.3500175476074,right,178.96926593780518,None,pp_21,clamp,icub,2022_Jan_10_1135,exp,2021.2.3,59.930443430276256,
right,stop,0,0,0,0,3,4,22,5,179.5007038116455,None,1,0.4408721923828125,179.5007038116455,None,180.0426309108734,None,181.05779695510864,181.38381791114807,181.05779695510864,181.38381791114807,180.0426309108734,None,180.0426309108734,None,180.0426309108734,None,550,400,1,True,312.97826766967773,-1.0,-1,185.26706099510193,None,pp_21,clamp,icub,2022_Jan_10_1135,exp,2021.2.3,59.930443430276256,
left,stop,0,0,0,0,3,5,23,2,185.76082801818848,None,1,0.15220904350280762,185.76082801818848,None,186.00246500968933,None,187.00565695762634,187.35381197929382,187.00565695762634,187.35381197929382,186.00246500968933,None,186.00246500968933,None,186.00246500968933,None,,,0,False,3000.3716945648193,-1.0,-1,190.87210392951965,None,pp_21,clamp,icub,2022_Jan_10_1135,exp,2021.2.3,59.930443430276256,
right,stop,0,0,0,0,4,0,24,5,191.3894488811493,None,1,0.7478489875793457,191.3894488811493,None,192.2376048564911,None,193.23531889915466,193.58556294441223,193.23531889915466,193.58556294441223,192.2376048564911,None,192.2376048564911,None,192.2376048564911,None,550,450,0,True,784.4338417053223,611.4521026611328,right,195.5310549736023,None,pp_21,clamp,icub,2022_Jan_10_1135,exp,2021.2.3,59.930443430276256,
right,stop,0,0,0,0,4,1,25,5,196.06612300872803,None,1,1.0604898929595947,196.06612300872803,None,197.22707080841064,None,198.2264289855957,198.5805048942566,198.2264289855957,198.5805048942566,197.22707080841064,None,197.22707080841064,None,197.22707080841064,None,550,400,1,True,818.2048797607422,-1.0,-1,202.9373550415039,None,pp_21,clamp,icub,2022_Jan_10_1135,exp,2021.2.3,59.930443430276256,
left,go,0,0,0,0,4,2,26,1,203.42992496490479,None,1,0.3923518657684326,203.42992496490479,None,203.9181878566742,None,204.89728903770447,205.24372792243958,204.89728903770447,205.24372792243958,203.9181878566742,None,203.9181878566742,None,203.9181878566742,None,-1,-1,1,True,408.74528884887695,713.1001949310303,left,206.9323809146881,None,pp_21,clamp,icub,2022_Jan_10_1135,exp,2021.2.3,59.930443430276256,
left,go,0,0,0,0,4,3,27,0,207.45872402191162,None,1,0.7146680355072021,207.45872402191162,None,208.24877786636353,None,209.24522995948792,209.5998818874359,209.24522995948792,209.5998818874359,208.24877786636353,None,208.24877786636353,None,208.24877786636353,None,-1,-1,1,True,380.3830146789551,912.17041015625,left,211.41471481323242,None,pp_21,clamp,icub,2022_Jan_10_1135,exp,2021.2.3,59.930443430276256,
right,go,0,0,0,0,4,4,28,3,211.93442797660828,None,1,0.5681309700012207,211.93442797660828,None,212.6039798259735,None,213.6125738620758,213.96435403823853,213.6125738620758,213.96435403823853,212.6039798259735,None,212.6039798259735,None,212.6039798259735,None,-1,-1,1,True,421.1409091949463,673.4874248504639,right,215.58360886573792,None,pp_21,clamp,icub,2022_Jan_10_1135,exp,2021.2.3,59.930443430276256,
right,go,0,0,0,0,4,5,29,3,216.10983896255493,None,1,0.7679851055145264,216.10983896255493,None,217.01553583145142,None,218.0215039253235,218.37733101844788,218.0215039253235,218.37733101844788,217.01553583145142,None,217.01553583145142,None,217.01553583145142,None,-1,-1,1,True,347.2137451171875,646.3344097137451,right,219.89164185523987,None,pp_21,clamp,icub,2022_Jan_10_1135,exp,2021.2.3,59.930443430276256,
right,go,0,0,0,0,5,0,30,3,220.41087293624878,None,1,1.0475640296936035,220.41087293624878,None,221.57415986061096,None,222.56955480575562,222.92441487312317,222.56955480575562,222.92441487312317,221.57415986061096,None,221.57415986061096,None,221.57415986061096,None,-1,-1,1,True,407.1516990661621,777.6598930358887,right,224.6359679698944,None,pp_21,clamp,icub,2022_Jan_10_1135,exp,2021.2.3,59.930443430276256,
right,stop,0,0,0,0,5,1,31,5,225.15206289291382,None,1,0.6683628559112549,225.15206289291382,None,225.9350528717041,None,226.96096992492676,227.3222939968109,226.96096992492676,227.3222939968109,225.9350528717041,None,225.9350528717041,None,225.9350528717041,None,550,450,1,True,443.06468963623047,-1.0,-1,231.25526690483093,None,pp_21,clamp,icub,2022_Jan_10_1135,exp,2021.2.3,59.930443430276256,
left,go,0,0,0,0,5,2,32,0,231.78549885749817,None,1,0.9304258823394775,231.78549885749817,None,232.82908296585083,None,233.810791015625,234.16477298736572,233.810791015625,234.16477298736572,232.82908296585083,None,232.82908296585083,None,232.82908296585083,None,,,0,False,-1.0,-1.0,-1,234.64939785003662,None,pp_21,clamp,icub,2022_Jan_10_1135,exp,2021.2.3,59.930443430276256,
right,go,0,0,0,0,5,3,33,4,235.14381885528564,None,1,1.2031850814819336,235.14381885528564,None,236.4351658821106,None,237.419273853302,237.77628087997437,237.419273853302,237.77628087997437,236.4351658821106,None,236.4351658821106,None,236.4351658821106,None,-1,-1,1,True,406.2533378601074,654.5553207397461,right,239.3661630153656,None,pp_21,clamp,icub,2022_Jan_10_1135,exp,2021.2.3,59.930443430276256,
right,go,0,0,0,0,5,4,34,3,239.86417603492737,None,1,0.5572328567504883,239.86417603492737,None,240.5304958820343,None,241.54820895195007,241.90272498130798,241.54820895195007,241.90272498130798,240.5304958820343,None,240.5304958820343,None,240.5304958820343,None,-1,-1,1,True,372.7376461029053,634.6292495727539,right,243.42422699928284,None,pp_21,clamp,icub,2022_Jan_10_1135,exp,2021.2.3,59.930443430276256,
left,go,0,0,0,0,5,5,35,1,243.9458818435669,None,1,0.3542630672454834,243.9458818435669,None,244.41570281982422,None,245.42258286476135,245.74729084968567,245.42258286476135,245.74729084968567,244.41570281982422,None,244.41570281982422,None,244.41570281982422,None,-1,-1,1,True,357.3739528656006,648.2794284820557,left,247.2999198436737,None,pp_21,clamp,icub,2022_Jan_10_1135,exp,2021.2.3,59.930443430276256,
right,stop,0,0,0,0,6,0,36,5,247.80802488327026,None,1,0.3453490734100342,247.80802488327026,None,248.28568601608276,None,249.29713201522827,249.65419793128967,249.29713201522827,249.65419793128967,248.28568601608276,None,248.28568601608276,None,248.28568601608276,None,550,500,0,True,413.68603706359863,554.4357299804688,right,251.15794491767883,None,pp_21,clamp,icub,2022_Jan_10_1135,exp,2021.2.3,59.930443430276256,
left,stop,0,0,0,0,6,1,37,2,251.6737518310547,None,1,1.011094093322754,251.6737518310547,None,252.81210684776306,None,253.8218128681183,254.17107892036438,253.8218128681183,254.17107892036438,252.81210684776306,None,252.81210684776306,None,252.81210684776306,None,550,450,1,True,356.5058708190918,-1.0,-1,258.0659530162811,None,pp_21,clamp,icub,2022_Jan_10_1135,exp,2021.2.3,59.930443430276256,
right,go,0,0,0,0,6,2,38,4,258.5597069263458,None,1,0.2581031322479248,258.5597069263458,None,258.9253430366516,None,259.9083240032196,260.25535893440247,259.9083240032196,260.25535893440247,258.9253430366516,None,258.9253430366516,None,258.9253430366516,None,-1,-1,1,True,566.997766494751,663.6948585510254,right,262.04765582084656,None,pp_21,clamp,icub,2022_Jan_10_1135,exp,2021.2.3,59.930443430276256,
right,stop,0,0,0,0,6,3,39,5,262.55877780914307,None,1,0.394773006439209,262.55877780914307,None,263.03898000717163,None,264.04970693588257,264.417032957077,264.04970693588257,264.417032957077,263.03898000717163,None,263.03898000717163,None,263.03898000717163,None,600,450,1,True,427.45089530944824,-1.0,-1,268.3361029624939,None,pp_21,clamp,icub,2022_Jan_10_1135,exp,2021.2.3,59.930443430276256,
right,go,0,0,0,0,6,4,40,4,268.86551785469055,None,1,1.477341890335083,268.86551785469055,None,270.47131299972534,None,271.45068097114563,271.8137249946594,271.45068097114563,271.8137249946594,270.47131299972534,None,270.47131299972534,None,270.47131299972534,None,-1,-1,1,True,505.3367614746094,665.3299331665039,right,273.5076470375061,None,pp_21,clamp,icub,2022_Jan_10_1135,exp,2021.2.3,59.930443430276256,
left,stop,0,0,0,0,6,5,41,2,274.02806782722473,None,1,0.8931729793548584,274.02806782722473,None,275.00164103507996,None,276.0049498081207,276.36587595939636,276.0049498081207,276.36587595939636,275.00164103507996,None,275.00164103507996,None,275.00164103507996,None,600,500,0,True,433.69388580322266,686.0995292663574,left,278.01892495155334,None,pp_21,clamp,icub,2022_Jan_10_1135,exp,2021.2.3,59.930443430276256,
left,stop,0,0,0,0,7,0,42,2,278.5393579006195,None,1,2.2681000232696533,278.5393579006195,None,280.9311068058014,None,281.93523502349854,282.28822684288025,281.93523502349854,282.28822684288025,280.9311068058014,None,280.9311068058014,None,280.9311068058014,None,550,500,1,True,480.9253215789795,-1.0,-1,286.2999768257141,None,pp_21,clamp,icub,2022_Jan_10_1135,exp,2021.2.3,59.930443430276256,
left,go,0,0,0,0,7,1,43,0,286.793555021286,None,1,0.36028003692626953,286.793555021286,None,287.28300499916077,None,288.2638158798218,288.61448788642883,288.2638158798218,288.61448788642883,287.28300499916077,None,287.28300499916077,None,287.28300499916077,None,-1,-1,1,True,379.43315505981445,719.1932201385498,left,290.26055788993835,None,pp_21,clamp,icub,2022_Jan_10_1135,exp,2021.2.3,59.930443430276256,
right,go,0,0,0,0,7,2,44,4,290.7881410121918,None,1,0.7420370578765869,290.7881410121918,None,291.6415078639984,None,292.67550897598267,293.02501702308655,292.67550897598267,293.02501702308655,291.6415078639984,None,291.6415078639984,None,291.6415078639984,None,-1,-1,1,True,303.5998344421387,873.1884956359863,right,294.7084629535675,None,pp_21,clamp,icub,2022_Jan_10_1135,exp,2021.2.3,59.930443430276256,
left,stop,0,0,0,0,7,3,45,2,295.2268989086151,None,1,0.5744562149047852,295.2268989086151,None,295.8920409679413,None,296.9243550300598,297.2883188724518,296.9243550300598,297.2883188724518,295.8920409679413,None,295.8920409679413,None,295.8920409679413,None,600,500,0,True,437.1778964996338,634.5105171203613,left,298.8526380062103,None,pp_21,clamp,icub,2022_Jan_10_1135,exp,2021.2.3,59.930443430276256,
right,go,0,0,0,0,7,4,46,3,299.3646948337555,None,1,0.6347029209136963,299.3646948337555,None,300.09433484077454,None,301.11962699890137,301.47320103645325,301.11962699890137,301.47320103645325,300.09433484077454,None,300.09433484077454,None,300.09433484077454,None,-1,-1,1,True,313.95602226257324,621.8359470367432,right,302.9036109447479,None,pp_21,clamp,icub,2022_Jan_10_1135,exp,2021.2.3,59.930443430276256,
left,go,0,0,0,0,7,5,47,0,303.43195390701294,None,1,0.38834595680236816,303.43195390701294,None,303.9138329029083,None,304.90646982192993,305.25112986564636,304.90646982192993,305.25112986564636,303.9138329029083,None,303.9138329029083,None,303.9138329029083,None,-1,-1,1,True,442.4853324890137,719.8784351348877,left,306.9797508716583,None,pp_21,clamp,icub,2022_Jan_10_1135,exp,2021.2.3,59.930443430276256,
left,stop,0,0,0,0,8,0,48,2,307.4869019985199,None,1,0.336467981338501,307.4869019985199,None,307.90876388549805,None,308.90272402763367,309.26804399490356,308.90272402763367,309.26804399490356,307.90876388549805,None,307.90876388549805,None,307.90876388549805,None,550,500,0,True,447.084903717041,650.2439975738525,left,310.88410091400146,None,pp_21,clamp,icub,2022_Jan_10_1135,exp,2021.2.3,59.930443430276256,
right,stop,0,0,0,0,8,1,49,5,311.39502692222595,None,1,1.91221284866333,311.39502692222595,None,313.4146988391876,None,314.42951703071594,314.78054094314575,314.42951703071594,314.78054094314575,313.4146988391876,None,313.4146988391876,None,313.4146988391876,None,500,500,0,True,427.30045318603516,622.3294734954834,right,316.3585579395294,None,pp_21,clamp,icub,2022_Jan_10_1135,exp,2021.2.3,59.930443430276256,
right,go,0,0,0,0,8,2,50,3,316.8629539012909,None,1,1.072524070739746,316.8629539012909,None,318.02108001708984,None,319.044380903244,319.39002990722656,319.044380903244,319.39002990722656,318.02108001708984,None,318.02108001708984,None,318.02108001708984,None,-1,-1,1,True,489.8829460144043,706.3820362091064,right,321.1087028980255,None,pp_21,clamp,icub,2022_Jan_10_1135,exp,2021.2.3,59.930443430276256,
right,go,0,0,0,0,8,3,51,3,321.6290798187256,None,1,0.3885948657989502,321.6290798187256,None,322.1030340194702,None,323.1343288421631,323.4783990383148,323.1343288421631,323.4783990383148,322.1030340194702,None,322.1030340194702,None,322.1030340194702,None,-1,-1,1,True,381.59918785095215,803.9007186889648,right,325.1897599697113,None,pp_21,clamp,icub,2022_Jan_10_1135,exp,2021.2.3,59.930443430276256,
right,go,0,0,0,0,8,4,52,3,325.7086548805237,None,1,0.37056612968444824,325.7086548805237,None,326.1822009086609,None,327.2114419937134,327.5778458118439,327.2114419937134,327.5778458118439,326.1822009086609,None,326.1822009086609,None,326.1822009086609,None,-1,-1,1,True,305.13811111450195,624.779224395752,right,328.9966130256653,None,pp_21,clamp,icub,2022_Jan_10_1135,exp,2021.2.3,59.930443430276256,
left,go,0,0,0,0,8,5,53,0,329.52214884757996,None,1,0.606097936630249,329.52214884757996,None,330.24451994895935,None,331.25499081611633,331.5803098678589,331.25499081611633,331.5803098678589,330.24451994895935,None,330.24451994895935,None,330.24451994895935,None,-1,-1,1,True,338.19103240966797,678.4045696258545,left,333.16975593566895,None,pp_21,clamp,icub,2022_Jan_10_1135,exp,2021.2.3,59.930443430276256,
left,stop,0,0,0,0,9,0,54,2,333.67858481407166,None,1,0.4905831813812256,333.67858481407166,None,334.28419494628906,None,335.3161828517914,335.6746258735657,335.3161828517914,335.6746258735657,334.28419494628906,None,334.28419494628906,None,334.28419494628906,None,500,450,0,True,341.90821647644043,646.1167335510254,left,337.15692591667175,None,pp_21,clamp,icub,2022_Jan_10_1135,exp,2021.2.3,59.930443430276256,
left,go,0,0,0,0,9,1,55,0,337.67875385284424,None,1,0.5085129737854004,337.67875385284424,None,338.28283882141113,None,339.2787458896637,339.6364119052887,339.2787458896637,339.6364119052887,338.28283882141113,None,338.28283882141113,None,338.28283882141113,None,-1,-1,1,True,320.85156440734863,593.7457084655762,left,341.07952785491943,None,pp_21,clamp,icub,2022_Jan_10_1135,exp,2021.2.3,59.930443430276256,
right,go,0,0,0,0,9,2,56,4,341.5768609046936,None,1,0.4572489261627197,341.5768609046936,None,342.1198148727417,None,343.11791491508484,343.4874210357666,343.11791491508484,343.4874210357666,342.1198148727417,None,342.1198148727417,None,342.1198148727417,None,-1,-1,1,True,330.80124855041504,754.2498111724854,right,345.09670996665955,None,pp_21,clamp,icub,2022_Jan_10_1135,exp,2021.2.3,59.930443430276256,
right,go,0,0,0,0,9,3,57,4,345.61111283302307,None,1,0.6017780303955078,345.61111283302307,None,346.33609986305237,None,347.33447194099426,347.68662095069885,347.33447194099426,347.68662095069885,346.33609986305237,None,346.33609986305237,None,346.33609986305237,None,-1,-1,1,True,421.8289852142334,485.2108955383301,right,349.124440908432,None,pp_21,clamp,icub,2022_Jan_10_1135,exp,2021.2.3,59.930443430276256,
left,go,0,0,0,0,9,4,58,1,349.6346538066864,None,1,0.3864459991455078,349.6346538066864,None,350.1153860092163,None,351.1497709751129,351.47260904312134,351.1497709751129,351.47260904312134,350.1153860092163,None,350.1153860092163,None,350.1153860092163,None,-1,-1,1,True,387.6183032989502,766.3941383361816,left,353.1704399585724,None,pp_21,clamp,icub,2022_Jan_10_1135,exp,2021.2.3,59.930443430276256,
right,go,0,0,0,0,9,5,59,4,353.68611192703247,None,1,0.47115087509155273,353.68611192703247,None,354.2861478328705,None,355.28733801841736,355.64100193977356,355.28733801841736,355.64100193977356,354.2861478328705,None,354.2861478328705,None,354.2861478328705,None,-1,-1,1,True,389.48583602905273,654.0789604187012,right,357.21032786369324,None,pp_21,clamp,icub,2022_Jan_10_1135,exp,2021.2.3,59.930443430276256,
left,go,0,0,0,0,10,0,60,1,357.7095549106598,None,1,0.4007110595703125,357.7095549106598,None,358.19058203697205,None,359.18324303627014,359.5337438583374,359.18324303627014,359.5337438583374,358.19058203697205,None,358.19058203697205,None,358.19058203697205,None,-1,-1,1,True,385.7433795928955,790.6863689422607,left,361.2675859928131,None,pp_21,clamp,icub,2022_Jan_10_1135,exp,2021.2.3,59.930443430276256,
right,go,0,0,0,0,10,1,61,3,361.7848210334778,None,1,0.3504829406738281,361.7848210334778,None,362.2627708911896,None,363.2749090194702,363.62870693206787,363.2749090194702,363.62870693206787,362.2627708911896,None,362.2627708911896,None,362.2627708911896,None,-1,-1,1,True,459.3043327331543,630.5088996887207,right,365.2500150203705,None,pp_21,clamp,icub,2022_Jan_10_1135,exp,2021.2.3,59.930443430276256,
right,go,0,0,0,0,10,2,62,4,365.7609510421753,None,1,0.38942503929138184,365.7609510421753,None,366.2409598827362,None,367.27350902557373,367.60712599754333,367.27350902557373,367.60712599754333,366.2409598827362,None,366.2409598827362,None,366.2409598827362,None,-1,-1,1,True,423.83503913879395,599.1485118865967,right,369.16083788871765,None,pp_21,clamp,icub,2022_Jan_10_1135,exp,2021.2.3,59.930443430276256,
right,stop,0,0,0,0,10,3,63,5,369.6752848625183,None,1,0.6198129653930664,369.6752848625183,None,370.4019548892975,None,371.40106892585754,371.76028990745544,371.40106892585754,371.76028990745544,370.4019548892975,None,370.4019548892975,None,370.4019548892975,None,450,450,0,True,328.5026550292969,657.2704315185547,right,373.281644821167,None,pp_21,clamp,icub,2022_Jan_10_1135,exp,2021.2.3,59.930443430276256,
left,go,0,0,0,0,10,4,64,0,373.7806668281555,None,1,0.4303858280181885,373.7806668281555,None,374.32084798812866,None,375.3147089481354,375.66598081588745,375.3147089481354,375.66598081588745,374.32084798812866,None,374.32084798812866,None,374.32084798812866,None,-1,-1,1,True,302.83403396606445,678.4887313842773,left,377.18032002449036,None,pp_21,clamp,icub,2022_Jan_10_1135,exp,2021.2.3,59.930443430276256,
left,stop,0,0,0,0,10,5,65,2,377.6770508289337,None,1,0.35887598991394043,377.6770508289337,None,378.15431785583496,None,379.1596128940582,379.5189549922943,379.1596128940582,379.5189549922943,378.15431785583496,None,378.15431785583496,None,378.15431785583496,None,450,400,1,True,457.40747451782227,-1.0,-1,383.50651001930237,None,pp_21,clamp,icub,2022_Jan_10_1135,exp,2021.2.3,59.930443430276256,
left,go,0,0,0,0,11,0,66,0,384.0370030403137,None,1,0.7576088905334473,384.0370030403137,None,384.896301984787,None,385.87881302833557,386.2361350059509,385.87881302833557,386.2361350059509,384.896301984787,None,384.896301984787,None,384.896301984787,None,-1,-1,1,True,443.74632835388184,828.3059597015381,left,388.0351128578186,None,pp_21,clamp,icub,2022_Jan_10_1135,exp,2021.2.3,59.930443430276256,
left,go,0,0,0,0,11,1,67,1,388.57138299942017,None,1,0.3798050880432129,388.57138299942017,None,389.0512328147888,None,390.04978799819946,390.3989748954773,390.04978799819946,390.3989748954773,389.0512328147888,None,389.0512328147888,None,389.0512328147888,None,-1,-1,1,True,254.8239231109619,962.0139598846436,left,392.14548683166504,None,pp_21,clamp,icub,2022_Jan_10_1135,exp,2021.2.3,59.930443430276256,
right,go,0,0,0,0,11,2,68,3,392.670040845871,None,1,0.7718820571899414,392.670040845871,None,393.5225019454956,None,394.5151948928833,394.85500502586365,394.5151948928833,394.85500502586365,393.5225019454956,None,393.5225019454956,None,393.5225019454956,None,-1,-1,1,True,449.7950077056885,748.0807304382324,right,396.5924229621887,None,pp_21,clamp,icub,2022_Jan_10_1135,exp,2021.2.3,59.930443430276256,
left,stop,0,0,0,0,11,3,69,2,397.11147594451904,None,1,0.5165529251098633,397.11147594451904,None,397.7135889530182,None,398.7069640159607,399.0550558567047,398.7069640159607,399.0550558567047,397.7135889530182,None,397.7135889530182,None,397.7135889530182,None,500,400,1,True,302.3831844329834,-1.0,-1,402.8874158859253,None,pp_21,clamp,icub,2022_Jan_10_1135,exp,2021.2.3,59.930443430276256,
right,stop,0,0,0,0,11,4,70,5,403.41900181770325,None,1,0.5875592231750488,403.41900181770325,None,404.092129945755,None,405.07492303848267,405.4264588356018,405.07492303848267,405.4264588356018,404.092129945755,None,404.092129945755,None,404.092129945755,None,550,400,1,True,308.02154541015625,-1.0,-1,409.2987608909607,None,pp_21,clamp,icub,2022_Jan_10_1135,exp,2021.2.3,59.930443430276256,
left,stop,0,0,0,0,11,5,71,2,409.82938981056213,None,1,1.144171953201294,409.82938981056213,None,411.06148290634155,None,412.0439419746399,412.4006199836731,412.0439419746399,412.4006199836731,411.06148290634155,None,411.06148290634155,None,411.06148290634155,None,550,450,0,True,655.188798904419,573.4336376190186,left,414.19659399986267,None,pp_21,clamp,icub,2022_Jan_10_1135,exp,2021.2.3,59.930443430276256,
right,go,0,0,0,0,12,0,72,3,414.71719884872437,None,1,0.9556939601898193,414.71719884872437,None,415.75338888168335,None,416.77049589157104,417.12065291404724,416.77049589157104,417.12065291404724,415.75338888168335,None,415.75338888168335,None,415.75338888168335,None,-1,-1,1,True,296.89621925354004,679.4352531433105,right,418.62053394317627,None,pp_21,clamp,icub,2022_Jan_10_1135,exp,2021.2.3,59.930443430276256,
left,go,0,0,0,0,12,1,73,1,419.1397588253021,None,1,0.5509898662567139,419.1397588253021,None,419.80674386024475,None,420.8388979434967,421.1839418411255,420.8388979434967,421.1839418411255,419.80674386024475,None,419.80674386024475,None,419.80674386024475,None,-1,-1,1,True,388.66519927978516,776.0112285614014,left,422.8710558414459,None,pp_21,clamp,icub,2022_Jan_10_1135,exp,2021.2.3,59.930443430276256,
right,go,0,0,0,0,12,2,74,4,423.3933138847351,None,1,2.1265270709991455,423.3933138847351,None,425.6485798358917,None,426.67563581466675,427.04166293144226,426.67563581466675,427.04166293144226,425.6485798358917,None,425.6485798358917,None,425.6485798358917,None,-1,-1,1,True,393.86653900146484,769.4101333618164,right,428.68826699256897,None,pp_21,clamp,icub,2022_Jan_10_1135,exp,2021.2.3,59.930443430276256,
left,go,0,0,0,0,12,3,75,1,429.2047448158264,None,1,0.6680970191955566,429.2047448158264,None,429.98885893821716,None,430.9872658252716,431.3465039730072,430.9872658252716,431.3465039730072,429.98885893821716,None,429.98885893821716,None,429.98885893821716,None,-1,-1,1,True,406.20970726013184,641.789436340332,left,432.92062282562256,None,pp_21,clamp,icub,2022_Jan_10_1135,exp,2021.2.3,59.930443430276256,
left,go,0,0,0,0,12,4,76,0,433.43376302719116,None,1,0.586798906326294,433.43376302719116,None,434.1010558605194,None,435.09806084632874,435.4558470249176,435.09806084632874,435.4558470249176,434.1010558605194,None,434.1010558605194,None,434.1010558605194,None,-1,-1,1,True,365.5827045440674,721.4221954345703,left,437.0701639652252,None,pp_21,clamp,icub,2022_Jan_10_1135,exp,2021.2.3,59.930443430276256,
left,go,0,0,0,0,12,5,77,1,437.58585000038147,None,1,0.76249098777771,437.58585000038147,None,438.43497800827026,None,439.46487188339233,439.7877788543701,439.46487188339233,439.7877788543701,438.43497800827026,None,438.43497800827026,None,438.43497800827026,None,-1,-1,1,True,414.49499130249023,692.7258968353271,left,441.41940999031067,None,pp_21,clamp,icub,2022_Jan_10_1135,exp,2021.2.3,59.930443430276256,
left,stop,1,0,1,0,0,0,0,2,453.1927590370178,None,1,11.05289101600647,453.1927590370178,None,464.3515770435333,None,465.37623500823975,465.7371368408203,465.37623500823975,465.7371368408203,464.3515770435333,None,464.3515770435333,None,464.3515770435333,None,500,450,0,True,385.8146667480469,679.821252822876,left,467.3012230396271,None,pp_21,clamp,icub,2022_Jan_10_1135,exp,2021.2.3,59.930443430276256,
right,go,1,0,1,0,0,1,1,3,467.8219609260559,None,1,0.5049130916595459,467.8219609260559,None,468.4269299507141,None,469.45433497428894,469.7971999645233,469.45433497428894,469.7971999645233,468.4269299507141,None,468.4269299507141,None,468.4269299507141,None,-1,-1,1,True,273.30946922302246,843.0814743041992,right,471.4390549659729,None,pp_21,clamp,icub,2022_Jan_10_1135,exp,2021.2.3,59.930443430276256,
right,go,1,0,1,0,0,2,2,4,471.94284200668335,None,1,0.5104019641876221,471.94284200668335,None,472.54778504371643,None,473.5657570362091,473.93506693840027,473.5657570362091,473.93506693840027,472.54778504371643,None,472.54778504371643,None,472.54778504371643,None,-1,-1,1,True,394.27804946899414,626.2164115905762,right,475.44506192207336,None,pp_21,clamp,icub,2022_Jan_10_1135,exp,2021.2.3,59.930443430276256,
right,go,1,0,1,0,0,3,3,3,475.96211791038513,None,1,0.38168787956237793,475.96211791038513,None,476.4432098865509,None,477.45523595809937,477.81935691833496,477.45523595809937,477.81935691833496,476.4432098865509,None,476.4432098865509,None,476.4432098865509,None,-1,-1,1,True,371.57750129699707,657.5336456298828,right,479.379597902298,None,pp_21,clamp,icub,2022_Jan_10_1135,exp,2021.2.3,59.930443430276256,
left,go,1,0,1,0,0,4,4,0,479.90025997161865,None,1,0.372344970703125,479.90025997161865,None,480.379460811615,None,481.3801848888397,481.7361378669739,481.3801848888397,481.7361378669739,480.379460811615,None,480.379460811615,None,480.379460811615,None,-1,-1,1,True,376.8739700317383,1132.2484016418457,left,483.7751398086548,None,pp_21,clamp,icub,2022_Jan_10_1135,exp,2021.2.3,59.930443430276256,
left,go,1,0,1,0,0,5,5,0,484.2843089103699,None,1,0.6664371490478516,484.2843089103699,None,485.0757918357849,None,486.092572927475,486.44472098350525,486.092572927475,486.44472098350525,485.0757918357849,None,485.0757918357849,None,485.0757918357849,None,-1,-1,1,True,332.75771141052246,652.2164344787598,left,487.95419001579285,None,pp_21,clamp,icub,2022_Jan_10_1135,exp,2021.2.3,59.930443430276256,
right,go,1,0,1,0,1,0,6,3,488.4651589393616,None,1,0.49900197982788086,488.4651589393616,None,489.0701379776001,None,490.10335397720337,490.46016788482666,490.10335397720337,490.46016788482666,489.0701379776001,None,489.0701379776001,None,489.0701379776001,None,-1,-1,1,True,318.77875328063965,655.3561687469482,right,491.92401695251465,None,pp_21,clamp,icub,2022_Jan_10_1135,exp,2021.2.3,59.930443430276256,
left,go,1,0,1,0,1,1,7,1,492.43319487571716,None,1,0.5863540172576904,492.43319487571716,None,493.0999388694763,None,494.1085698604584,494.4417269229889,494.1085698604584,494.4417269229889,493.0999388694763,None,493.0999388694763,None,493.0999388694763,None,-1,-1,1,True,296.7219352722168,739.0904426574707,left,496.01010298728943,None,pp_21,clamp,icub,2022_Jan_10_1135,exp,2021.2.3,59.930443430276256,
right,go,1,0,1,0,1,2,8,4,496.52746200561523,None,1,0.5050680637359619,496.52746200561523,None,497.1332628726959,None,498.1356358528137,498.4923429489136,498.1356358528137,498.4923429489136,497.1332628726959,None,497.1332628726959,None,497.1332628726959,None,-1,-1,1,True,253.04150581359863,596.4643955230713,right,499.8630528450012,None,pp_21,clamp,icub,2022_Jan_10_1135,exp,2021.2.3,59.930443430276256,
left,go,1,0,1,0,1,3,9,1,500.3611488342285,None,1,0.4033660888671875,500.3611488342285,None,500.8929479122162,None,501.89364290237427,502.2361879348755,501.89364290237427,502.2361879348755,500.8929479122162,None,500.8929479122162,None,500.8929479122162,None,-1,-1,1,True,337.03017234802246,674.9327182769775,left,503.8148069381714,None,pp_21,clamp,icub,2022_Jan_10_1135,exp,2021.2.3,59.930443430276256,
left,go,1,0,1,0,1,4,10,1,504.3364779949188,None,1,0.41397809982299805,504.3364779949188,None,504.8784828186035,None,505.8768889904022,506.22483491897583,505.8768889904022,506.22483491897583,504.8784828186035,None,504.8784828186035,None,504.8784828186035,None,-1,-1,1,True,394.55223083496094,729.2060852050781,left,507.87823486328125,None,pp_21,clamp,icub,2022_Jan_10_1135,exp,2021.2.3,59.930443430276256,
right,go,1,0,1,0,1,5,11,3,508.3960509300232,None,1,0.5298371315002441,508.3960509300232,None,509.04971504211426,None,510.07650995254517,510.43090987205505,510.07650995254517,510.43090987205505,509.04971504211426,None,509.04971504211426,None,509.04971504211426,None,-1,-1,1,True,327.7544975280762,681.448221206665,right,511.95897793769836,None,pp_21,clamp,icub,2022_Jan_10_1135,exp,2021.2.3,59.930443430276256,
right,go,1,0,1,0,2,0,12,4,512.4744868278503,None,1,1.1321420669555664,512.4744868278503,None,513.6980879306793,None,514.732666015625,515.0979130268097,514.732666015625,515.0979130268097,513.6980879306793,None,513.6980879306793,None,513.6980879306793,None,,,0,False,-1.0,-1.0,-1,515.5336108207703,None,pp_21,clamp,icub,2022_Jan_10_1135,exp,2021.2.3,59.930443430276256,
right,stop,1,0,1,0,2,1,13,5,516.0638809204102,None,1,1.0638940334320068,516.0638809204102,None,517.2438750267029,None,518.262491941452,518.6220259666443,518.262491941452,518.6220259666443,517.2438750267029,None,517.2438750267029,None,517.2438750267029,None,450,450,0,True,354.58898544311523,502.394437789917,right,520.0086579322815,None,pp_21,clamp,icub,2022_Jan_10_1135,exp,2021.2.3,59.930443430276256,
left,go,1,0,1,0,2,2,14,0,520.5374908447266,None,1,0.8969078063964844,520.5374908447266,None,521.5149748325348,None,522.5211279392242,522.8831670284271,522.5211279392242,522.8831670284271,521.5149748325348,None,521.5149748325348,None,521.5149748325348,None,-1,-1,1,True,359.3177795410156,730.0481796264648,left,524.5013358592987,None,pp_21,clamp,icub,2022_Jan_10_1135,exp,2021.2.3,59.930443430276256,
left,stop,1,0,1,0,2,3,15,2,524.9933938980103,None,1,0.5038480758666992,524.9933938980103,None,525.5982139110565,None,526.6308279037476,526.97718501091,526.6308279037476,526.97718501091,525.5982139110565,None,525.5982139110565,None,525.5982139110565,None,450,400,0,True,366.93525314331055,601.9477844238281,left,528.4769639968872,None,pp_21,clamp,icub,2022_Jan_10_1135,exp,2021.2.3,59.930443430276256,
left,stop,1,0,1,0,2,4,16,2,528.9927580356598,None,1,1.1380739212036133,528.9927580356598,None,530.2164099216461,None,531.2254819869995,531.5695350170135,531.2254819869995,531.5695350170135,530.2164099216461,None,530.2164099216461,None,530.2164099216461,None,400,400,0,True,668.3404445648193,602.5376319885254,left,533.3693468570709,None,pp_21,clamp,icub,2022_Jan_10_1135,exp,2021.2.3,59.930443430276256,
right,stop,1,0,1,0,2,5,17,5,533.8665308952332,None,1,0.7229869365692139,533.8665308952332,None,534.7053549289703,None,535.7071239948273,536.0453498363495,535.7071239948273,536.0453498363495,534.7053549289703,None,534.7053549289703,None,534.7053549289703,None,350,400,1,True,723.4477996826172,-1.0,-1,540.3243708610535,None,pp_21,clamp,icub,2022_Jan_10_1135,exp,2021.2.3,59.930443430276256,
left,go,1,0,1,0,3,0,18,1,540.8187239170074,None,1,0.7553629875183105,540.8187239170074,None,541.6786358356476,None,542.6574358940125,543.0149509906769,542.6574358940125,543.0149509906769,541.6786358356476,None,541.6786358356476,None,541.6786358356476,None,-1,-1,1,True,507.5504779815674,921.5784072875977,left,544.97518491745,None,pp_21,clamp,icub,2022_Jan_10_1135,exp,2021.2.3,59.930443430276256,
left,stop,1,0,1,0,3,1,19,2,545.5029690265656,None,1,0.4893338680267334,545.5029690265656,None,546.1069278717041,None,547.1028699874878,547.4615399837494,547.1028699874878,547.4615399837494,546.1069278717041,None,546.1069278717041,None,546.1069278717041,None,350,450,1,True,444.93818283081055,-1.0,-1,551.4293699264526,None,pp_21,clamp,icub,2022_Jan_10_1135,exp,2021.2.3,59.930443430276256,
right,go,1,0,1,0,3,2,20,4,551.9606068134308,None,1,0.620352029800415,551.9606068134308,None,552.696389913559,None,553.6777849197388,554.0304989814758,553.6777849197388,554.0304989814758,552.696389913559,None,552.696389913559,None,552.696389913559,None,-1,-1,1,True,469.36702728271484,642.4100399017334,right,555.7013068199158,None,pp_21,clamp,icub,2022_Jan_10_1135,exp,2021.2.3,59.930443430276256,
right,go,1,0,1,0,3,3,21,4,556.2081489562988,None,1,0.5403318405151367,556.2081489562988,None,556.8716979026794,None,557.8687179088593,558.2195839881897,557.8687179088593,558.2195839881897,556.8716979026794,None,556.8716979026794,None,556.8716979026794,None,-1,-1,1,True,453.81760597229004,512.7284526824951,right,559.7174170017242,None,pp_21,clamp,icub,2022_Jan_10_1135,exp,2021.2.3,59.930443430276256,
left,go,1,0,1,0,3,4,22,0,560.2396128177643,None,1,0.9139690399169922,560.2396128177643,None,561.2747099399567,None,562.2896869182587,562.6311848163605,562.2896869182587,562.6311848163605,561.2747099399567,None,561.2747099399567,None,561.2747099399567,None,-1,-1,1,True,843.6403274536133,657.1969985961914,left,564.6542558670044,None,pp_21,clamp,icub,2022_Jan_10_1135,exp,2021.2.3,59.930443430276256,
left,stop,1,0,1,0,3,5,23,2,565.1828248500824,None,1,0.34476304054260254,565.1828248500824,None,565.6030399799347,None,566.6274719238281,566.9532198905945,566.6274719238281,566.9532198905945,565.6030399799347,None,565.6030399799347,None,565.6030399799347,None,400,450,1,True,421.91267013549805,-1.0,-1,570.9045798778534,None,pp_21,clamp,icub,2022_Jan_10_1135,exp,2021.2.3,59.930443430276256,
left,go,1,0,1,0,4,0,24,1,571.4365019798279,None,1,0.7667019367218018,571.4365019798279,None,572.2972249984741,None,573.2806379795074,573.6350059509277,573.2806379795074,573.6350059509277,572.2972249984741,None,572.2972249984741,None,572.2972249984741,None,-1,-1,1,True,442.11292266845703,599.6565818786621,left,575.2108390331268,None,pp_21,clamp,icub,2022_Jan_10_1135,exp,2021.2.3,59.930443430276256,
left,stop,1,0,1,0,4,1,25,2,575.7212100028992,None,1,0.5872719287872314,575.7212100028992,None,576.4459979534149,None,577.4505078792572,577.8002808094025,577.4505078792572,577.8002808094025,576.4459979534149,None,576.4459979534149,None,576.4459979534149,None,450,450,1,True,441.13779067993164,-1.0,-1,581.7720458507538,None,pp_21,clamp,icub,2022_Jan_10_1135,exp,2021.2.3,59.930443430276256,
left,go,1,0,1,0,4,2,26,1,582.3029448986053,None,1,0.6099898815155029,582.3029448986053,None,583.0391969680786,None,584.0204010009766,584.3870978355408,584.0204010009766,584.3870978355408,583.0391969680786,None,583.0391969680786,None,583.0391969680786,None,-1,-1,1,True,488.3413314819336,709.7091674804688,left,586.1176109313965,None,pp_21,clamp,icub,2022_Jan_10_1135,exp,2021.2.3,59.930443430276256,
right,stop,1,0,1,0,4,3,27,5,586.6249890327454,None,1,0.5873630046844482,586.6249890327454,None,587.2926659584045,None,588.2966890335083,588.6513848304749,588.2966890335083,588.6513848304749,587.2926659584045,None,587.2926659584045,None,587.2926659584045,None,500,450,1,True,437.58296966552734,-1.0,-1,592.6192688941956,None,pp_21,clamp,icub,2022_Jan_10_1135,exp,2021.2.3,59.930443430276256,
right,go,1,0,1,0,4,4,28,4,593.1492218971252,None,1,0.5567319393157959,593.1492218971252,None,593.8225498199463,None,594.8079738616943,595.1621329784393,594.8079738616943,595.1621329784393,593.8225498199463,None,593.8225498199463,None,593.8225498199463,None,-1,-1,1,True,531.9910049438477,744.5197105407715,right,596.9710528850555,None,pp_21,clamp,icub,2022_Jan_10_1135,exp,2021.2.3,59.930443430276256,
left,go,1,0,1,0,4,5,29,0,597.5024468898773,None,1,0.5048408508300781,597.5024468898773,None,598.1066009998322,None,599.1328408718109,599.4747319221497,599.1328408718109,599.4747319221497,598.1066009998322,None,598.1066009998322,None,598.1066009998322,None,-1,-1,1,True,625.7927417755127,826.5159130096436,left,601.4420189857483,None,pp_21,clamp,icub,2022_Jan_10_1135,exp,2021.2.3,59.930443430276256,
left,go,1,0,1,0,5,0,30,1,601.9481530189514,None,1,0.6552798748016357,601.9481530189514,None,602.7309830188751,None,603.742537021637,604.0972299575806,603.742537021637,604.0972299575806,602.7309830188751,None,602.7309830188751,None,602.7309830188751,None,-1,-1,1,True,743.7777519226074,730.017900466919,left,606.0996408462524,None,pp_21,clamp,icub,2022_Jan_10_1135,exp,2021.2.3,59.930443430276256,
right,stop,1,0,1,0,5,1,31,5,606.6347379684448,None,1,0.4315040111541748,606.6347379684448,None,607.1749768257141,None,608.1994609832764,608.5497958660126,608.1994609832764,608.5497958660126,607.1749768257141,None,607.1749768257141,None,607.1749768257141,None,500,500,0,True,431.81490898132324,655.1084518432617,right,610.1609649658203,None,pp_21,clamp,icub,2022_Jan_10_1135,exp,2021.2.3,59.930443430276256,
right,stop,1,0,1,0,5,2,32,5,610.6808469295502,None,1,2.7776918411254883,610.6808469295502,None,613.5655930042267,None,614.5603048801422,614.8981969356537,614.5603048801422,614.8981969356537,613.5655930042267,None,613.5655930042267,None,613.5655930042267,None,500,450,1,True,377.28309631347656,-1.0,-1,618.83660197258,None,pp_21,clamp,icub,2022_Jan_10_1135,exp,2021.2.3,59.930443430276256,
left,go,1,0,1,0,5,3,33,0,619.3303020000458,None,1,0.6506049633026123,619.3303020000458,None,620.0676209926605,None,621.0467228889465,621.4129099845886,621.0467228889465,621.4129099845886,620.0676209926605,None,620.0676209926605,None,620.0676209926605,None,-1,-1,1,True,412.3375415802002,982.9061031341553,left,623.3421149253845,None,pp_21,clamp,icub,2022_Jan_10_1135,exp,2021.2.3,59.930443430276256,
left,stop,1,0,1,0,5,4,34,2,623.8778879642487,None,1,0.6202499866485596,623.8778879642487,None,624.6050748825073,None,625.6225318908691,625.9688019752502,625.6225318908691,625.9688019752502,624.6050748825073,None,624.6050748825073,None,624.6050748825073,None,500,500,1,True,466.2482738494873,-1.0,-1,629.9529478549957,None,pp_21,clamp,icub,2022_Jan_10_1135,exp,2021.2.3,59.930443430276256,
right,go,1,0,1,0,5,5,35,3,630.485554933548,None,1,0.5133709907531738,630.485554933548,None,631.0910248756409,None,632.092043876648,632.4408509731293,632.092043876648,632.4408509731293,631.0910248756409,None,631.0910248756409,None,631.0910248756409,None,-1,-1,1,True,428.9741516113281,672.4135875701904,right,634.0726528167725,None,pp_21,clamp,icub,2022_Jan_10_1135,exp,2021.2.3,59.930443430276256,
left,stop,1,0,1,0,6,0,36,2,634.5717899799347,None,1,0.6173069477081299,634.5717899799347,None,635.2980709075928,None,636.3324568271637,636.6858379840851,636.3324568271637,636.6858379840851,635.2980709075928,None,635.2980709075928,None,635.2980709075928,None,550,500,0,True,547.7285385131836,728.708028793335,left,638.4562458992004,None,pp_21,clamp,icub,2022_Jan_10_1135,exp,2021.2.3,59.930443430276256,
left,stop,1,0,1,0,6,1,37,2,638.9732949733734,None,1,1.3948309421539307,638.9732949733734,None,640.5008749961853,None,641.515044927597,641.8737499713898,641.515044927597,641.8737499713898,640.5008749961853,None,640.5008749961853,None,640.5008749961853,None,500,500,1,True,501.8641948699951,-1.0,-1,645.9160490036011,None,pp_21,clamp,icub,2022_Jan_10_1135,exp,2021.2.3,59.930443430276256,
left,stop,1,0,1,0,6,2,38,2,646.4093918800354,None,1,0.7233951091766357,646.4093918800354,None,647.269129037857,None,648.255087852478,648.6067118644714,648.255087852478,648.6067118644714,647.269129037857,None,647.269129037857,None,647.269129037857,None,550,500,1,True,602.4942398071289,-1.0,-1,652.7387018203735,None,pp_21,clamp,icub,2022_Jan_10_1135,exp,2021.2.3,59.930443430276256,
left,go,1,0,1,0,6,3,39,1,653.2691099643707,None,1,2.6525938510894775,653.2691099643707,None,656.0441160202026,None,657.0231058597565,657.3723130226135,657.0231058597565,657.3723130226135,656.0441160202026,None,656.0441160202026,None,656.0441160202026,None,-1,-1,1,True,419.3100929260254,796.6156005859375,left,659.1559889316559,None,pp_21,clamp,icub,2022_Jan_10_1135,exp,2021.2.3,59.930443430276256,
right,go,1,0,1,0,6,4,40,4,659.6675570011139,None,1,0.949455976486206,659.6675570011139,None,660.7081768512726,None,661.7052738666534,662.0541949272156,661.7052738666534,662.0541949272156,660.7081768512726,None,660.7081768512726,None,660.7081768512726,None,-1,-1,1,True,509.97400283813477,617.1543598175049,right,663.7147719860077,None,pp_21,clamp,icub,2022_Jan_10_1135,exp,2021.2.3,59.930443430276256,
right,go,1,0,1,0,6,5,41,3,664.2222838401794,None,1,0.5282900333404541,664.2222838401794,None,664.8258929252625,None,665.8229479789734,666.1749370098114,665.8229479789734,666.1749370098114,664.8258929252625,None,664.8258929252625,None,664.8258929252625,None,-1,-1,1,True,362.41769790649414,648.3829021453857,right,667.7196178436279,None,pp_21,clamp,icub,2022_Jan_10_1135,exp,2021.2.3,59.930443430276256,
left,go,1,0,1,0,7,0,42,0,668.2493209838867,None,1,0.4347269535064697,668.2493209838867,None,668.7901508808136,None,669.8163809776306,670.1715350151062,669.8163809776306,670.1715350151062,668.7901508808136,None,668.7901508808136,None,668.7901508808136,None,-1,-1,1,True,331.4487934112549,907.3293209075928,left,671.9277369976044,None,pp_21,clamp,icub,2022_Jan_10_1135,exp,2021.2.3,59.930443430276256,
right,go,1,0,1,0,7,1,43,3,672.441654920578,None,1,0.6173980236053467,672.441654920578,None,673.1685638427734,None,674.1880719661713,674.5438718795776,674.1880719661713,674.5438718795776,673.1685638427734,None,673.1685638427734,None,673.1685638427734,None,-1,-1,1,True,408.94126892089844,674.8514175415039,right,676.160001039505,None,pp_21,clamp,icub,2022_Jan_10_1135,exp,2021.2.3,59.930443430276256,
right,stop,1,0,1,0,7,2,44,5,676.672956943512,None,1,0.5642049312591553,676.672956943512,None,677.3436238765717,None,678.3372259140015,678.700434923172,678.3372259140015,678.700434923172,677.3436238765717,None,677.3436238765717,None,677.3436238765717,None,600,500,0,True,280.78722953796387,719.3121910095215,right,680.2338638305664,None,pp_21,clamp,icub,2022_Jan_10_1135,exp,2021.2.3,59.930443430276256,
right,stop,1,0,1,0,7,3,45,5,680.7475550174713,None,1,0.9204518795013428,680.7475550174713,None,681.782331943512,None,682.7760648727417,683.1301279067993,682.7760648727417,683.1301279067993,681.782331943512,None,681.782331943512,None,681.782331943512,None,600,450,1,True,131.6061019897461,-1.0,-1,686.8298599720001,None,pp_21,clamp,icub,2022_Jan_10_1135,exp,2021.2.3,59.930443430276256,
left,go,1,0,1,0,7,4,46,0,687.3238949775696,None,1,0.8577179908752441,687.3238949775696,None,688.3067779541016,None,689.28679895401,689.6441388130188,689.28679895401,689.6441388130188,688.3067779541016,None,688.3067779541016,None,688.3067779541016,None,-1,-1,1,True,408.6587429046631,709.0065479278564,left,691.2925820350647,None,pp_21,clamp,icub,2022_Jan_10_1135,exp,2021.2.3,59.930443430276256,
left,stop,1,0,1,0,7,5,47,2,691.80628490448,None,1,0.4865851402282715,691.80628490448,None,692.4089488983154,None,693.4318399429321,693.785395860672,693.4318399429321,693.785395860672,692.4089488983154,None,692.4089488983154,None,692.4089488983154,None,600,500,0,True,678.3576011657715,681.7450523376465,left,695.6763520240784,None,pp_21,clamp,icub,2022_Jan_10_1135,exp,2021.2.3,59.930443430276256,
right,go,1,0,1,0,8,0,48,3,696.1730048656464,None,1,1.0547950267791748,696.1730048656464,None,697.3317408561707,None,698.325187921524,698.6699349880219,698.325187921524,698.6699349880219,697.3317408561707,None,697.3317408561707,None,697.3317408561707,None,-1,-1,1,True,630.0644874572754,697.1676349639893,right,700.572518825531,None,pp_21,clamp,icub,2022_Jan_10_1135,exp,2021.2.3,59.930443430276256,
right,go,1,0,1,0,8,1,49,4,701.0730488300323,None,1,0.6664478778839111,701.0730488300323,None,701.8441829681396,None,702.8720688819885,703.2326529026031,702.8720688819885,703.2326529026031,701.8441829681396,None,701.8441829681396,None,701.8441829681396,None,-1,-1,1,True,404.4983386993408,650.6593227386475,right,704.7765209674835,None,pp_21,clamp,icub,2022_Jan_10_1135,exp,2021.2.3,59.930443430276256,
right,go,1,0,1,0,8,2,50,3,705.2920649051666,None,1,0.8041830062866211,705.2920649051666,None,706.2040660381317,None,707.2176508903503,707.5804178714752,707.2176508903503,707.5804178714752,706.2040660381317,None,706.2040660381317,None,706.2040660381317,None,-1,-1,1,True,467.0732021331787,698.6093521118164,right,709.2702879905701,None,pp_21,clamp,icub,2022_Jan_10_1135,exp,2021.2.3,59.930443430276256,
left,stop,1,0,1,0,8,3,51,2,709.7881939411163,None,1,0.5740511417388916,709.7881939411163,None,710.4796109199524,None,711.5013349056244,711.8669748306274,711.5013349056244,711.8669748306274,710.4796109199524,None,710.4796109199524,None,710.4796109199524,None,550,500,1,True,483.4015369415283,-1.0,-1,715.8661689758301,None,pp_21,clamp,icub,2022_Jan_10_1135,exp,2021.2.3,59.930443430276256,
left,go,1,0,1,0,8,4,52,1,716.3978769779205,None,1,0.8261959552764893,716.3978769779205,None,717.3201739788055,None,718.2949810028076,718.6377859115601,718.2949810028076,718.6377859115601,717.3201739788055,None,717.3201739788055,None,717.3201739788055,None,-1,-1,1,True,393.0165767669678,687.1635913848877,left,720.2706158161163,None,pp_21,clamp,icub,2022_Jan_10_1135,exp,2021.2.3,59.930443430276256,
left,go,1,0,1,0,8,5,53,0,720.7815368175507,None,1,0.5894680023193359,720.7815368175507,None,721.4519658088684,None,722.458958864212,722.8273048400879,722.458958864212,722.8273048400879,721.4519658088684,None,721.4519658088684,None,721.4519658088684,None,-1,-1,1,True,579.3247222900391,617.0938014984131,left,724.5549328327179,None,pp_21,clamp,icub,2022_Jan_10_1135,exp,2021.2.3,59.930443430276256,
left,go,1,0,1,0,9,0,54,0,725.0752439498901,None,1,0.5583019256591797,725.0752439498901,None,725.7396469116211,None,726.7440140247345,727.0913820266724,726.7440140247345,727.0913820266724,725.7396469116211,None,725.7396469116211,None,725.7396469116211,None,-1,-1,1,True,489.11094665527344,674.3311882019043,left,728.7865798473358,None,pp_21,clamp,icub,2022_Jan_10_1135,exp,2021.2.3,59.930443430276256,
right,stop,1,0,1,0,9,1,55,5,729.2915949821472,None,1,0.7857859134674072,729.2915949821472,None,730.2003629207611,None,731.2090878486633,731.535796880722,731.2090878486633,731.535796880722,730.2003629207611,None,730.2003629207611,None,730.2003629207611,None,600,500,1,True,457.303524017334,-1.0,-1,735.5600090026855,None,pp_21,clamp,icub,2022_Jan_10_1135,exp,2021.2.3,59.930443430276256,
left,go,1,0,1,0,9,2,56,0,736.0914928913116,None,1,0.4650230407714844,736.0914928913116,None,736.6398189067841,None,737.623664855957,737.961040019989,737.623664855957,737.961040019989,736.6398189067841,None,736.6398189067841,None,736.6398189067841,None,-1,-1,1,True,670.5882549285889,642.0347690582275,left,739.8453869819641,None,pp_21,clamp,icub,2022_Jan_10_1135,exp,2021.2.3,59.930443430276256,
left,go,1,0,1,0,9,3,57,1,740.3631908893585,None,1,0.5585129261016846,740.3631908893585,None,741.0278890132904,None,742.0217549800873,742.3656768798828,742.0217549800873,742.3656768798828,741.0278890132904,None,741.0278890132904,None,741.0278890132904,None,-1,-1,1,True,449.83410835266113,690.4439926147461,left,744.0536539554596,None,pp_21,clamp,icub,2022_Jan_10_1135,exp,2021.2.3,59.930443430276256,
right,go,1,0,1,0,9,4,58,4,744.5744998455048,None,1,0.4614379405975342,744.5744998455048,None,745.1169078350067,None,746.145171880722,746.4860618114471,746.145171880722,746.4860618114471,745.1169078350067,None,745.1169078350067,None,745.1169078350067,None,-1,-1,1,True,407.47880935668945,733.3927154541016,right,748.1455018520355,None,pp_21,clamp,icub,2022_Jan_10_1135,exp,2021.2.3,59.930443430276256,
left,go,1,0,1,0,9,5,59,1,748.6675679683685,None,1,0.6560900211334229,748.6675679683685,None,749.4566960334778,None,750.4599568843842,750.8153820037842,750.4599568843842,750.8153820037842,749.4566960334778,None,749.4566960334778,None,749.4566960334778,None,-1,-1,1,True,490.21458625793457,692.7587985992432,left,752.5234370231628,None,pp_21,clamp,icub,2022_Jan_10_1135,exp,2021.2.3,59.930443430276256,
right,go,1,0,1,0,10,0,60,4,753.0404019355774,None,1,0.45826292037963867,753.0404019355774,None,753.5843188762665,None,754.6084368228912,754.96240401268,754.6084368228912,754.96240401268,753.5843188762665,None,753.5843188762665,None,753.5843188762665,None,-1,-1,1,True,602.8389930725098,675.6918430328369,right,756.7671589851379,None,pp_21,clamp,icub,2022_Jan_10_1135,exp,2021.2.3,59.930443430276256,
right,stop,1,0,1,0,10,1,61,5,757.2759728431702,None,1,0.47292017936706543,757.2759728431702,None,757.8775629997253,None,758.8719158172607,759.2170360088348,758.8719158172607,759.2170360088348,757.8775629997253,None,757.8775629997253,None,757.8775629997253,None,600,550,0,True,378.0481815338135,593.7638282775879,right,760.7653110027313,None,pp_21,clamp,icub,2022_Jan_10_1135,exp,2021.2.3,59.930443430276256,
right,go,1,0,1,0,10,2,62,4,761.2868888378143,None,1,0.8129901885986328,761.2868888378143,None,762.1999278068542,None,763.2288219928741,763.5920689105988,763.2288219928741,763.5920689105988,762.1999278068542,None,762.1999278068542,None,762.1999278068542,None,-1,-1,1,True,454.8499584197998,720.7224369049072,right,765.2834839820862,None,pp_21,clamp,icub,2022_Jan_10_1135,exp,2021.2.3,59.930443430276256,
left,go,1,0,1,0,10,3,63,1,765.7878909111023,None,1,0.5812890529632568,765.7878909111023,None,766.4543228149414,None,767.466933965683,767.8251438140869,767.466933965683,767.8251438140869,766.4543228149414,None,766.4543228149414,None,766.4543228149414,None,-1,-1,1,True,526.2513160705566,685.5926513671875,left,769.5396518707275,None,pp_21,clamp,icub,2022_Jan_10_1135,exp,2021.2.3,59.930443430276256,
right,stop,1,0,1,0,10,4,64,5,770.0459530353546,None,1,0.2980020046234131,770.0459530353546,None,770.4492619037628,None,771.4572570323944,771.8114278316498,771.4572570323944,771.8114278316498,770.4492619037628,None,770.4492619037628,None,770.4492619037628,None,600,500,0,True,376.3468265533447,516.8876647949219,right,773.2282228469849,None,pp_21,clamp,icub,2022_Jan_10_1135,exp,2021.2.3,59.930443430276256,
left,stop,1,0,1,0,10,5,65,2,773.745570898056,None,1,0.27303004264831543,773.745570898056,None,774.104140996933,None,775.1084909439087,775.4316940307617,775.1084909439087,775.4316940307617,774.104140996933,None,774.104140996933,None,774.104140996933,None,600,450,0,True,431.1494827270508,626.3113021850586,left,777.0295429229736,None,pp_21,clamp,icub,2022_Jan_10_1135,exp,2021.2.3,59.930443430276256,
left,go,1,0,1,0,11,0,66,0,777.5623209476471,None,1,0.2833251953125,777.5623209476471,None,777.9780340194702,None,779.0029318332672,779.3700549602509,779.0029318332672,779.3700549602509,777.9780340194702,None,777.9780340194702,None,777.9780340194702,None,-1,-1,1,True,350.2793312072754,602.0388603210449,left,780.8111889362335,None,pp_21,clamp,icub,2022_Jan_10_1135,exp,2021.2.3,59.930443430276256,
right,stop,1,0,1,0,11,1,67,5,781.3294429779053,None,1,0.3214600086212158,781.3294429779053,None,781.783499956131,None,782.7815229892731,783.143002986908,782.7815229892731,783.143002986908,781.783499956131,None,781.783499956131,None,781.783499956131,None,550,450,1,True,315.1674270629883,-1.0,-1,786.9885189533234,None,pp_21,clamp,icub,2022_Jan_10_1135,exp,2021.2.3,59.930443430276256,
right,go,1,0,1,0,11,2,68,4,787.5195159912109,None,1,0.36478686332702637,787.5195159912109,None,788.0078339576721,None,788.9904668331146,789.3609218597412,788.9904668331146,789.3609218597412,788.0078339576721,None,788.0078339576721,None,788.0078339576721,None,,,0,False,-1.0,-1.0,-1,789.5132949352264,None,pp_21,clamp,icub,2022_Jan_10_1135,exp,2021.2.3,59.930443430276256,
right,stop,1,0,1,0,11,3,69,5,790.0123689174652,None,1,1.4858510494232178,790.0123689174652,None,791.5886299610138,None,792.5833899974823,792.9392039775848,792.5833899974823,792.9392039775848,791.5886299610138,None,791.5886299610138,None,791.5886299610138,None,550,500,0,True,429.6870231628418,486.99378967285156,right,794.3884308338165,None,pp_21,clamp,icub,2022_Jan_10_1135,exp,2021.2.3,59.930443430276256,
right,stop,1,0,1,0,11,4,70,5,794.9231200218201,None,1,0.47363901138305664,794.9231200218201,None,795.5243740081787,None,796.5446698665619,796.8989520072937,796.5446698665619,796.8989520072937,795.5243740081787,None,795.5243740081787,None,795.5243740081787,None,550,450,1,True,554.8021793365479,-1.0,-1,800.982549905777,None,pp_21,clamp,icub,2022_Jan_10_1135,exp,2021.2.3,59.930443430276256,
right,go,1,0,1,0,11,5,71,3,801.4763488769531,None,1,0.5800230503082275,801.4763488769531,None,802.1509289741516,None,803.1345279216766,803.4938700199127,803.1345279216766,803.4938700199127,802.1509289741516,None,802.1509289741516,None,802.1509289741516,None,-1,-1,1,True,426.0973930358887,657.3946475982666,right,805.1143209934235,None,pp_21,clamp,icub,2022_Jan_10_1135,exp,2021.2.3,59.930443430276256,
right,go,1,0,1,0,12,0,72,3,805.6134388446808,None,1,0.44216394424438477,805.6134388446808,None,806.1552720069885,None,807.1506388187408,807.5086688995361,807.1506388187408,807.5086688995361,806.1552720069885,None,806.1552720069885,None,806.1552720069885,None,-1,-1,1,True,757.6742172241211,521.406888961792,right,809.311115026474,None,pp_21,clamp,icub,2022_Jan_10_1135,exp,2021.2.3,59.930443430276256,
right,go,1,0,1,0,12,1,73,4,809.8205809593201,None,1,0.6001789569854736,809.8205809593201,None,810.5490319728851,None,811.543007850647,811.9049408435822,811.543007850647,811.9049408435822,810.5490319728851,None,810.5490319728851,None,810.5490319728851,None,,,0,False,-1.0,-1.0,-1,812.3560538291931,None,pp_21,clamp,icub,2022_Jan_10_1135,exp,2021.2.3,59.930443430276256,
left,go,1,0,1,0,12,2,74,0,812.8493428230286,None,1,0.7518301010131836,812.8493428230286,None,813.7078728675842,None,814.6915168762207,815.0386619567871,814.6915168762207,815.0386619567871,813.7078728675842,None,813.7078728675842,None,813.7078728675842,None,-1,-1,1,True,443.29118728637695,652.2278785705566,left,816.7020819187164,None,pp_21,clamp,icub,2022_Jan_10_1135,exp,2021.2.3,59.930443430276256,
left,go,1,0,1,0,12,3,75,1,817.1956198215485,None,1,0.41361308097839355,817.1956198215485,None,817.7278609275818,None,818.7529129981995,819.1056280136108,818.7529129981995,819.1056280136108,817.7278609275818,None,817.7278609275818,None,817.7278609275818,None,-1,-1,1,True,392.1241760253906,533.494234085083,left,820.5270290374756,None,pp_21,clamp,icub,2022_Jan_10_1135,exp,2021.2.3,59.930443430276256,
right,go,1,0,1,0,12,4,76,3,821.0373778343201,None,1,0.3988218307495117,821.0373778343201,None,821.5496108531952,None,822.5337619781494,822.8542959690094,822.5337619781494,822.8542959690094,821.5496108531952,None,821.5496108531952,None,821.5496108531952,None,-1,-1,1,True,296.59509658813477,541.5899753570557,right,824.2756400108337,None,pp_21,clamp,icub,2022_Jan_10_1135,exp,2021.2.3,59.930443430276256,
right,go,1,0,1,0,12,5,77,3,824.8037979602814,None,1,0.3560760021209717,824.8037979602814,None,825.2835648059845,None,826.2872760295868,826.6272158622742,826.2872760295868,826.6272158622742,825.2835648059845,None,825.2835648059845,None,825.2835648059845,None,,,0,False,-1.0,-1.0,-1,827.0277400016785,None,pp_21,clamp,icub,2022_Jan_10_1135,exp,2021.2.3,59.930443430276256,
right,stop,2,0,2,0,0,0,0,5,836.8203790187836,None,1,23.075438976287842,836.8203790187836,None,860.0105068683624,None,861.0191378593445,861.3809578418732,861.0191378593445,861.3809578418732,860.0105068683624,None,860.0105068683624,None,860.0105068683624,None,550,500,0,True,480.04984855651855,605.870246887207,right,862.9812598228455,None,pp_21,clamp,icub,2022_Jan_10_1135,exp,2021.2.3,59.930443430276256,
left,go,2,0,2,0,0,1,1,0,863.5137889385223,None,1,0.7766280174255371,863.5137889385223,None,864.4233858585358,None,865.4255928993225,865.7724950313568,865.4255928993225,865.7724950313568,864.4233858585358,None,864.4233858585358,None,864.4233858585358,None,-1,-1,1,True,893.4078216552734,583.0726623535156,left,867.8010330200195,None,pp_21,clamp,icub,2022_Jan_10_1135,exp,2021.2.3,59.930443430276256,
left,go,2,0,2,0,0,2,2,1,868.3323719501495,None,1,0.5541539192199707,868.3323719501495,None,868.9967658519745,None,870.0028560161591,870.3668298721313,870.0028560161591,870.3668298721313,868.9967658519745,None,868.9967658519745,None,868.9967658519745,None,-1,-1,1,True,372.59507179260254,548.3624935150146,left,871.8008549213409,None,pp_21,clamp,icub,2022_Jan_10_1135,exp,2021.2.3,59.930443430276256,
right,stop,2,0,2,0,0,3,3,5,872.3188760280609,None,1,0.48737311363220215,872.3188760280609,None,872.906858921051,None,873.9123828411102,874.2701058387756,873.9123828411102,874.2701058387756,872.906858921051,None,872.906858921051,None,872.906858921051,None,550,450,0,True,291.9588088989258,595.1943397521973,right,875.6945049762726,None,pp_21,clamp,icub,2022_Jan_10_1135,exp,2021.2.3,59.930443430276256,
right,go,2,0,2,0,0,4,4,3,876.2068829536438,None,1,0.8726701736450195,876.2068829536438,None,877.1825299263,None,878.213604927063,878.5776879787445,878.213604927063,878.5776879787445,877.1825299263,None,877.1825299263,None,877.1825299263,None,-1,-1,1,True,576.2362480163574,651.1449813842773,right,880.2990298271179,None,pp_21,clamp,icub,2022_Jan_10_1135,exp,2021.2.3,59.930443430276256,
right,stop,2,0,2,0,0,5,5,5,880.8089468479156,None,1,0.4314141273498535,880.8089468479156,None,881.3501369953156,None,882.3507378101349,882.7046098709106,882.3507378101349,882.7046098709106,881.3501369953156,None,881.3501369953156,None,881.3501369953156,None,550,400,1,True,362.59913444519043,-1.0,-1,886.5937509536743,None,pp_21,clamp,icub,2022_Jan_10_1135,exp,2021.2.3,59.930443430276256,
right,go,2,0,2,0,1,0,6,4,887.1254830360413,None,1,0.10145378112792969,887.1254830360413,None,887.3670580387115,None,888.3460059165955,888.7169749736786,888.3460059165955,888.7169749736786,887.3670580387115,None,887.3670580387115,None,887.3670580387115,None,-1,-1,1,True,347.63026237487793,694.4658756256104,right,890.2912349700928,None,pp_21,clamp,icub,2022_Jan_10_1135,exp,2021.2.3,59.930443430276256,
left,stop,2,0,2,0,1,1,7,2,890.8231348991394,None,1,0.4043459892272949,890.8231348991394,None,891.3601980209351,None,892.3931429386139,892.7183978557587,892.3931429386139,892.7183978557587,891.3601980209351,None,891.3601980209351,None,891.3601980209351,None,550,450,1,True,388.99683952331543,-1.0,-1,896.620836019516,None,pp_21,clamp,icub,2022_Jan_10_1135,exp,2021.2.3,59.930443430276256,
right,go,2,0,2,0,1,2,8,4,897.1517779827118,None,1,0.5252280235290527,897.1517779827118,None,897.7645518779755,None,898.7475538253784,899.0955619812012,898.7475538253784,899.0955619812012,897.7645518779755,None,897.7645518779755,None,897.7645518779755,None,-1,-1,1,True,476.6414165496826,648.5669612884521,right,900.7537670135498,None,pp_21,clamp,icub,2022_Jan_10_1135,exp,2021.2.3,59.930443430276256,
left,stop,2,0,2,0,1,3,9,2,901.2723288536072,None,1,0.399852991104126,901.2723288536072,None,901.8098340034485,None,902.8177468776703,903.145073890686,902.8177468776703,903.145073890686,901.8098340034485,None,901.8098340034485,None,901.8098340034485,None,600,450,0,True,446.44713401794434,594.8524475097656,left,904.7640039920807,None,pp_21,clamp,icub,2022_Jan_10_1135,exp,2021.2.3,59.930443430276256,
right,go,2,0,2,0,1,4,10,3,905.2823758125305,None,1,0.5559990406036377,905.2823758125305,None,905.9378788471222,None,906.9434878826141,907.3067598342896,906.9434878826141,907.3067598342896,905.9378788471222,None,905.9378788471222,None,905.9378788471222,None,-1,-1,1,True,554.0022850036621,570.4121589660645,right,908.9610438346863,None,pp_21,clamp,icub,2022_Jan_10_1135,exp,2021.2.3,59.930443430276256,
right,go,2,0,2,0,1,5,11,4,909.4818780422211,None,1,0.25743985176086426,909.4818780422211,None,909.8391559123993,None,910.8493399620056,911.1835949420929,910.8493399620056,911.1835949420929,909.8391559123993,None,909.8391559123993,None,909.8391559123993,None,-1,-1,1,True,485.7828617095947,548.2428073883057,right,912.7499508857727,None,pp_21,clamp,icub,2022_Jan_10_1135,exp,2021.2.3,59.930443430276256,
left,go,2,0,2,0,2,0,12,0,913.2639489173889,None,1,0.25167012214660645,913.2639489173889,None,913.6219370365143,None,914.631148815155,914.9812769889832,914.631148815155,914.9812769889832,913.6219370365143,None,913.6219370365143,None,913.6219370365143,None,-1,-1,1,True,448.70662689208984,592.7901268005371,left,916.5570030212402,None,pp_21,clamp,icub,2022_Jan_10_1135,exp,2021.2.3,59.930443430276256,
left,go,2,0,2,0,2,1,13,1,917.0664110183716,None,1,0.4299428462982178,917.0664110183716,None,917.6050479412079,None,918.5974988937378,918.9442799091339,918.5974988937378,918.9442799091339,917.6050479412079,None,917.6050479412079,None,917.6050479412079,None,-1,-1,1,True,459.5792293548584,658.5121154785156,left,920.5961608886719,None,pp_21,clamp,icub,2022_Jan_10_1135,exp,2021.2.3,59.930443430276256,
left,stop,2,0,2,0,2,2,14,2,921.1065080165863,None,1,0.41689300537109375,921.1065080165863,None,921.6471819877625,None,922.6599638462067,923.0155079364777,922.6599638462067,923.0155079364777,921.6471819877625,None,921.6471819877625,None,921.6471819877625,None,550,450,0,True,396.7175483703613,600.184440612793,left,924.5357449054718,None,pp_21,clamp,icub,2022_Jan_10_1135,exp,2021.2.3,59.930443430276256,
left,go,2,0,2,0,2,3,15,1,925.0347239971161,None,1,0.5014369487762451,925.0347239971161,None,925.6429858207703,None,926.6412160396576,926.9973478317261,926.6412160396576,926.9973478317261,925.6429858207703,None,925.6429858207703,None,925.6429858207703,None,-1,-1,1,True,545.7868576049805,774.092435836792,left,928.8437600135803,None,pp_21,clamp,icub,2022_Jan_10_1135,exp,2021.2.3,59.930443430276256,
left,stop,2,0,2,0,2,4,16,2,929.3539528846741,None,1,0.40613603591918945,929.3539528846741,None,929.8357508182526,None,930.8361690044403,931.1856548786163,930.8361690044403,931.1856548786163,929.8357508182526,None,929.8357508182526,None,929.8357508182526,None,500,450,0,True,384.3963146209717,684.1111183166504,left,932.7897410392761,None,pp_21,clamp,icub,2022_Jan_10_1135,exp,2021.2.3,59.930443430276256,
right,go,2,0,2,0,2,5,17,4,933.3033788204193,None,1,0.45488810539245605,933.3033788204193,None,933.8491878509521,None,934.8697040081024,935.2149269580841,934.8697040081024,935.2149269580841,933.8491878509521,None,933.8491878509521,None,933.8491878509521,None,-1,-1,1,True,333.6939811706543,787.6813411712646,right,936.8649430274963,None,pp_21,clamp,icub,2022_Jan_10_1135,exp,2021.2.3,59.930443430276256,
right,go,2,0,2,0,3,0,18,4,937.3745980262756,None,1,0.46980881690979004,937.3745980262756,None,937.9781248569489,None,939.0061140060425,939.3762810230255,939.0061140060425,939.3762810230255,937.9781248569489,None,937.9781248569489,None,937.9781248569489,None,-1,-1,1,True,357.36751556396484,722.4817276000977,right,940.940801858902,None,pp_21,clamp,icub,2022_Jan_10_1135,exp,2021.2.3,59.930443430276256,
right,go,2,0,2,0,3,1,19,4,941.4746429920197,None,1,0.2804598808288574,941.4746429920197,None,941.8884439468384,None,942.8827879428864,943.2432060241699,942.8827879428864,943.2432060241699,941.8884439468384,None,941.8884439468384,None,941.8884439468384,None,-1,-1,1,True,439.58568572998047,637.3748779296875,right,944.8396639823914,None,pp_21,clamp,icub,2022_Jan_10_1135,exp,2021.2.3,59.930443430276256,
left,go,2,0,2,0,3,2,20,1,945.3532810211182,None,1,0.5501317977905273,945.3532810211182,None,946.0182068347931,None,947.041023015976,947.3842558860779,947.041023015976,947.3842558860779,946.0182068347931,None,946.0182068347931,None,946.0182068347931,None,-1,-1,1,True,421.6198921203613,690.4833316802979,left,949.0020349025726,None,pp_21,clamp,icub,2022_Jan_10_1135,exp,2021.2.3,59.930443430276256,
right,go,2,0,2,0,3,3,21,3,949.503072977066,None,1,0.28307604789733887,949.503072977066,None,949.919538974762,None,950.9284868240356,951.2684099674225,950.9284868240356,951.2684099674225,949.919538974762,None,949.919538974762,None,949.919538974762,None,-1,-1,1,True,449.0518569946289,593.388557434082,right,952.8664839267731,None,pp_21,clamp,icub,2022_Jan_10_1135,exp,2021.2.3,59.930443430276256,
left,stop,2,0,2,0,3,4,22,2,953.3639419078827,None,1,0.35820698738098145,953.3639419078827,None,953.8426020145416,None,954.870589017868,955.2187359333038,954.870589017868,955.2187359333038,953.8426020145416,None,953.8426020145416,None,953.8426020145416,None,450,450,0,True,399.05476570129395,527.7636051177979,left,956.6485249996185,None,pp_21,clamp,icub,2022_Jan_10_1135,exp,2021.2.3,59.930443430276256,
right,go,2,0,2,0,3,5,23,4,957.1625118255615,None,1,0.6188459396362305,957.1625118255615,None,957.890725851059,None,958.924299955368,959.2551870346069,958.924299955368,959.2551870346069,957.890725851059,None,957.890725851059,None,957.890725851059,None,-1,-1,1,True,120.2089786529541,615.7379150390625,right,960.5254139900208,None,pp_21,clamp,icub,2022_Jan_10_1135,exp,2021.2.3,59.930443430276256,
right,go,2,0,2,0,4,0,24,3,961.0426299571991,None,1,0.42844605445861816,961.0426299571991,None,961.585942029953,None,962.5815620422363,962.933109998703,962.5815620422363,962.933109998703,961.585942029953,None,961.585942029953,None,961.585942029953,None,-1,-1,1,True,346.451997756958,534.4817638397217,right,964.3383560180664,None,pp_21,clamp,icub,2022_Jan_10_1135,exp,2021.2.3,59.930443430276256,
right,stop,2,0,2,0,4,1,25,5,964.8592698574066,None,1,0.2778780460357666,964.8592698574066,None,965.2174439430237,None,966.2425799369812,966.6105568408966,966.2425799369812,966.6105568408966,965.2174439430237,None,965.2174439430237,None,965.2174439430237,None,400,450,0,True,330.58905601501465,638.4460926055908,right,968.0625619888306,None,pp_21,clamp,icub,2022_Jan_10_1135,exp,2021.2.3,59.930443430276256,
left,stop,2,0,2,0,4,2,26,2,968.5812139511108,None,1,0.6569349765777588,968.5812139511108,None,969.3622210025787,None,970.3927359580994,970.7443099021912,970.3927359580994,970.7443099021912,969.3622210025787,None,969.3622210025787,None,969.3622210025787,None,400,400,0,True,343.735933303833,555.6342601776123,left,972.1501619815826,None,pp_21,clamp,icub,2022_Jan_10_1135,exp,2021.2.3,59.930443430276256,
left,go,2,0,2,0,4,3,27,0,972.6547629833221,None,1,0.5491900444030762,972.6547629833221,None,973.3185579776764,None,974.3153419494629,974.664717912674,974.3153419494629,974.664717912674,973.3185579776764,None,973.3185579776764,None,973.3185579776764,None,-1,-1,1,True,417.61183738708496,723.818302154541,left,976.3407669067383,None,pp_21,clamp,icub,2022_Jan_10_1135,exp,2021.2.3,59.930443430276256,
right,go,2,0,2,0,4,4,28,4,976.8622529506683,None,1,0.30905890464782715,976.8622529506683,None,977.2807469367981,None,978.275652885437,978.6189339160919,978.275652885437,978.6189339160919,977.2807469367981,None,977.2807469367981,None,977.2807469367981,None,-1,-1,1,True,424.332857131958,591.5896892547607,right,980.1996760368347,None,pp_21,clamp,icub,2022_Jan_10_1135,exp,2021.2.3,59.930443430276256,
left,go,2,0,2,0,4,5,29,1,980.7105958461761,None,1,0.4006211757659912,980.7105958461761,None,981.248899936676,None,982.2812910079956,982.6357619762421,982.2812910079956,982.6357619762421,981.248899936676,None,981.248899936676,None,981.248899936676,None,-1,-1,1,True,493.85666847229004,487.5955581665039,left,984.1346018314362,None,pp_21,clamp,icub,2022_Jan_10_1135,exp,2021.2.3,59.930443430276256,
left,go,2,0,2,0,5,0,30,1,984.6424539089203,None,1,0.27368903160095215,984.6424539089203,None,985.0017189979553,None,986.007572889328,986.3731279373169,986.007572889328,986.3731279373169,985.0017189979553,None,985.0017189979553,None,985.0017189979553,None,-1,-1,1,True,289.642333984375,543.0355072021484,left,987.7364149093628,None,pp_21,clamp,icub,2022_Jan_10_1135,exp,2021.2.3,59.930443430276256,
left,go,2,0,2,0,5,1,31,1,988.245589017868,None,1,0.22265100479125977,988.245589017868,None,988.6007099151611,None,989.6128628253937,989.9615218639374,989.6128628253937,989.9615218639374,988.6007099151611,None,988.6007099151611,None,988.6007099151611,None,-1,-1,1,True,511.354923248291,516.74485206604,left,991.5207998752594,None,pp_21,clamp,icub,2022_Jan_10_1135,exp,2021.2.3,59.930443430276256,
right,go,2,0,2,0,5,2,32,3,992.0307378768921,None,1,0.41136908531188965,992.0307378768921,None,992.5697779655457,None,993.5920219421387,993.9616038799286,993.5920219421387,993.9616038799286,992.5697779655457,None,992.5697779655457,None,992.5697779655457,None,-1,-1,1,True,375.2288818359375,616.3012981414795,right,995.4434258937836,None,pp_21,clamp,icub,2022_Jan_10_1135,exp,2021.2.3,59.930443430276256,
left,go,2,0,2,0,5,3,33,1,995.945387840271,None,1,0.27764320373535156,995.945387840271,None,996.303699016571,None,997.3134288787842,997.676472902298,997.3134288787842,997.676472902298,996.303699016571,None,996.303699016571,None,996.303699016571,None,-1,-1,1,True,571.1424350738525,708.2009315490723,left,999.4822118282318,None,pp_21,clamp,icub,2022_Jan_10_1135,exp,2021.2.3,59.930443430276256,
right,stop,2,0,2,0,5,4,34,5,1000.0024998188019,None,1,0.34965014457702637,1000.0024998188019,None,1000.4798209667206,None,1001.5010478496552,1001.8528699874878,1001.5010478496552,1001.8528699874878,1000.4798209667206,None,1000.4798209667206,None,1000.4798209667206,None,350,400,0,True,459.8057270050049,516.7868137359619,right,1003.3649549484253,None,pp_21,clamp,icub,2022_Jan_10_1135,exp,2021.2.3,59.930443430276256,
left,stop,2,0,2,0,5,5,35,2,1003.8746538162231,None,1,0.4184079170227051,1003.8746538162231,None,1004.4130818843842,None,1005.418016910553,1005.7627699375153,1005.418016910553,1005.7627699375153,1004.4130818843842,None,1004.4130818843842,None,1004.4130818843842,None,350,350,1,True,356.6124439239502,-1.0,-1,1009.6483569145203,None,pp_21,clamp,icub,2022_Jan_10_1135,exp,2021.2.3,59.930443430276256,
right,go,2,0,2,0,6,0,36,4,1010.1415688991547,None,1,0.3851461410522461,1010.1415688991547,None,1010.6300828456879,None,1011.6273808479309,1011.9668989181519,1011.6273808479309,1011.9668989181519,1010.6300828456879,None,1010.6300828456879,None,1010.6300828456879,None,-1,-1,1,True,286.9436740875244,512.0322704315186,right,1013.2975509166718,None,pp_21,clamp,icub,2022_Jan_10_1135,exp,2021.2.3,59.930443430276256,
right,go,2,0,2,0,6,1,37,3,1013.8086168766022,None,1,0.46237611770629883,1013.8086168766022,None,1014.3512778282166,None,1015.3707649707794,1015.7237420082092,1015.3707649707794,1015.7237420082092,1014.3512778282166,None,1014.3512778282166,None,1014.3512778282166,None,-1,-1,1,True,626.650333404541,476.45115852355957,right,1017.3554668426514,None,pp_21,clamp,icub,2022_Jan_10_1135,exp,2021.2.3,59.930443430276256,
left,go,2,0,2,0,6,2,38,0,1017.8916869163513,None,1,0.19719600677490234,1017.8916869163513,None,1018.1890749931335,None,1019.1871898174286,1019.542760848999,1019.1871898174286,1019.542760848999,1018.1890749931335,None,1018.1890749931335,None,1018.1890749931335,None,-1,-1,1,True,635.195255279541,627.5434494018555,left,1021.3597588539124,None,pp_21,clamp,icub,2022_Jan_10_1135,exp,2021.2.3,59.930443430276256,
right,go,2,0,2,0,6,3,39,3,1021.8730578422546,None,1,0.23409104347229004,1021.8730578422546,None,1022.227541923523,None,1023.2452960014343,1023.593780040741,1023.2452960014343,1023.593780040741,1022.227541923523,None,1022.227541923523,None,1022.227541923523,None,-1,-1,1,True,486.0968589782715,594.5949554443359,right,1025.2013449668884,None,pp_21,clamp,icub,2022_Jan_10_1135,exp,2021.2.3,59.930443430276256,
right,go,2,0,2,0,6,4,40,4,1025.7197029590607,None,1,0.3792710304260254,1025.7197029590607,None,1026.17906498909,None,1027.1776440143585,1027.5506520271301,1027.1776440143585,1027.5506520271301,1026.17906498909,None,1026.17906498909,None,1026.17906498909,None,-1,-1,1,True,316.62487983703613,497.93505668640137,right,1028.8965549468994,None,pp_21,clamp,icub,2022_Jan_10_1135,exp,2021.2.3,59.930443430276256,
right,stop,2,0,2,0,6,5,41,5,1029.409999847412,None,1,0.42378711700439453,1029.409999847412,None,1029.9522650241852,None,1030.9673368930817,1031.2949538230896,1030.9673368930817,1031.2949538230896,1029.9522650241852,None,1029.9522650241852,None,1029.9522650241852,None,400,350,0,True,446.73705101013184,543.6885356903076,right,1032.844132900238,None,pp_21,clamp,icub,2022_Jan_10_1135,exp,2021.2.3,59.930443430276256,
right,go,2,0,2,0,7,0,42,3,1033.3511419296265,None,1,0.9679219722747803,1033.3511419296265,None,1034.4472329616547,None,1035.4585769176483,1035.8194258213043,1035.4585769176483,1035.8194258213043,1034.4472329616547,None,1034.4472329616547,None,1034.4472329616547,None,-1,-1,1,True,462.9931449890137,573.9407539367676,right,1037.3942778110504,None,pp_21,clamp,icub,2022_Jan_10_1135,exp,2021.2.3,59.930443430276256,
left,go,2,0,2,0,7,1,43,1,1037.9145770072937,None,1,0.3843040466308594,1037.9145770072937,None,1038.392993927002,None,1039.4010038375854,1039.763550043106,1039.4010038375854,1039.763550043106,1038.392993927002,None,1038.392993927002,None,1038.392993927002,None,-1,-1,1,True,412.492036819458,663.4602546691895,left,1041.3710868358612,None,pp_21,clamp,icub,2022_Jan_10_1135,exp,2021.2.3,59.930443430276256,
left,go,2,0,2,0,7,2,44,1,1041.89151096344,None,1,0.4483518600463867,1041.89151096344,None,1042.4326498508453,None,1043.438076019287,1043.8013169765472,1043.438076019287,1043.8013169765472,1042.4326498508453,None,1042.4326498508453,None,1042.4326498508453,None,-1,-1,1,True,457.9143524169922,609.8110675811768,left,1045.4001088142395,None,pp_21,clamp,icub,2022_Jan_10_1135,exp,2021.2.3,59.930443430276256,
left,stop,2,0,2,0,7,3,45,2,1045.9201169013977,None,1,0.7536170482635498,1045.9201169013977,None,1046.7742438316345,None,1047.785838842392,1048.148313999176,1047.785838842392,1048.148313999176,1046.7742438316345,None,1046.7742438316345,None,1046.7742438316345,None,400,300,1,True,449.91397857666016,-1.0,-1,1052.1254448890686,None,pp_21,clamp,icub,2022_Jan_10_1135,exp,2021.2.3,59.930443430276256,
left,go,2,0,2,0,7,4,46,1,1052.657161951065,None,1,0.7842209339141846,1052.657161951065,None,1053.580356836319,None,1054.5635249614716,1054.9174029827118,1054.5635249614716,1054.9174029827118,1053.580356836319,None,1053.580356836319,None,1053.580356836319,None,-1,-1,1,True,497.2200393676758,642.5871849060059,left,1056.591413974762,None,pp_21,clamp,icub,2022_Jan_10_1135,exp,2021.2.3,59.930443430276256,
left,go,2,0,2,0,7,5,47,0,1057.0890710353851,None,1,0.571739912033081,1057.0890710353851,None,1057.755628824234,None,1058.7543790340424,1059.1191728115082,1058.7543790340424,1059.1191728115082,1057.755628824234,None,1057.755628824234,None,1057.755628824234,None,-1,-1,1,True,614.7716045379639,663.2721424102783,left,1060.9286959171295,None,pp_21,clamp,icub,2022_Jan_10_1135,exp,2021.2.3,59.930443430276256,
right,stop,2,0,2,0,8,0,48,5,1061.4302818775177,None,1,0.5554981231689453,1061.4302818775177,None,1062.094652891159,None,1063.119985818863,1063.4763278961182,1063.119985818863,1063.4763278961182,1062.094652891159,None,1062.094652891159,None,1062.094652891159,None,450,300,1,True,462.4814987182617,-1.0,-1,1067.4283759593964,None,pp_21,clamp,icub,2022_Jan_10_1135,exp,2021.2.3,59.930443430276256,
right,go,2,0,2,0,8,1,49,4,1067.9597058296204,None,1,0.6086180210113525,1067.9597058296204,None,1068.6977000236511,None,1069.6780278682709,1070.0446548461914,1069.6780278682709,1070.0446548461914,1068.6977000236511,None,1068.6977000236511,None,1068.6977000236511,None,-1,-1,1,True,362.0951175689697,589.3409252166748,right,1071.5202729701996,None,pp_21,clamp,icub,2022_Jan_10_1135,exp,2021.2.3,59.930443430276256,
left,stop,2,0,2,0,8,2,50,2,1072.0489659309387,None,1,0.6047220230102539,1072.0489659309387,None,1072.7771968841553,None,1073.7813308238983,1074.147941827774,1073.7813308238983,1074.147941827774,1072.7771968841553,None,1072.7771968841553,None,1072.7771968841553,None,450,350,0,True,884.5407962799072,641.2243843078613,left,1076.211865901947,None,pp_21,clamp,icub,2022_Jan_10_1135,exp,2021.2.3,59.930443430276256,
left,go,2,0,2,0,8,3,51,0,1076.7314238548279,None,1,0.31922388076782227,1076.7314238548279,None,1077.1508100032806,None,1078.181914806366,1078.5199258327484,1078.181914806366,1078.5199258327484,1077.1508100032806,None,1077.1508100032806,None,1077.1508100032806,None,-1,-1,1,True,930.7711124420166,519.6998119354248,left,1080.5024058818817,None,pp_21,clamp,icub,2022_Jan_10_1135,exp,2021.2.3,59.930443430276256,
right,go,2,0,2,0,8,4,52,3,1081.0197958946228,None,1,0.4551568031311035,1081.0197958946228,None,1081.602844953537,None,1082.602797985077,1082.9315729141235,1082.602797985077,1082.9315729141235,1081.602844953537,None,1081.602844953537,None,1081.602844953537,None,-1,-1,1,True,410.0217819213867,566.3769245147705,right,1084.4844000339508,None,pp_21,clamp,icub,2022_Jan_10_1135,exp,2021.2.3,59.930443430276256,
left,go,2,0,2,0,8,5,53,0,1084.9872119426727,None,1,0.7500219345092773,1084.9872119426727,None,1085.838742017746,None,1086.8705139160156,1087.2211978435516,1086.8705139160156,1087.2211978435516,1085.838742017746,None,1085.838742017746,None,1085.838742017746,None,-1,-1,1,True,376.4963150024414,599.7166633605957,left,1088.7048938274384,None,pp_21,clamp,icub,2022_Jan_10_1135,exp,2021.2.3,59.930443430276256,
left,go,2,0,2,0,9,0,54,0,1089.214691877365,None,1,0.4991321563720703,1089.214691877365,None,1089.8207268714905,None,1090.8149099349976,1091.1404049396515,1090.8149099349976,1091.1404049396515,1089.8207268714905,None,1089.8207268714905,None,1089.8207268714905,None,-1,-1,1,True,395.6882953643799,542.2055721282959,left,1092.6392860412598,None,pp_21,clamp,icub,2022_Jan_10_1135,exp,2021.2.3,59.930443430276256,
right,stop,2,0,2,0,9,1,55,5,1093.1743760108948,None,1,0.32878899574279785,1093.1743760108948,None,1093.5907349586487,None,1094.6010439395905,1094.9729959964752,1094.6010439395905,1094.9729959964752,1093.5907349586487,None,1093.5907349586487,None,1093.5907349586487,None,400,350,1,True,435.3768825531006,-1.0,-1,1098.932021856308,None,pp_21,clamp,icub,2022_Jan_10_1135,exp,2021.2.3,59.930443430276256,
right,go,2,0,2,0,9,2,56,3,1099.4628129005432,None,1,1.1435530185699463,1099.4628129005432,None,1100.6925859451294,None,1101.674376964569,1102.0277140140533,1101.674376964569,1102.0277140140533,1100.6925859451294,None,1100.6925859451294,None,1100.6925859451294,None,-1,-1,1,True,418.5333251953125,659.2738628387451,right,1103.6335198879242,None,pp_21,clamp,icub,2022_Jan_10_1135,exp,2021.2.3,59.930443430276256,
right,stop,2,0,2,0,9,3,57,5,1104.150635957718,None,1,0.6209540367126465,1104.150635957718,None,1104.8778929710388,None,1105.9069538116455,1106.2592339515686,1105.9069538116455,1106.2592339515686,1104.8778929710388,None,1104.8778929710388,None,1104.8778929710388,None,400,400,0,True,359.4183921813965,580.327033996582,right,1107.719496011734,None,pp_21,clamp,icub,2022_Jan_10_1135,exp,2021.2.3,59.930443430276256,
right,go,2,0,2,0,9,4,58,3,1108.2262189388275,None,1,0.9735531806945801,1108.2262189388275,None,1109.3231568336487,None,1110.3161640167236,1110.6437849998474,1110.3161640167236,1110.6437849998474,1109.3231568336487,None,1109.3231568336487,None,1109.3231568336487,None,-1,-1,1,True,387.57967948913574,575.2785205841064,right,1112.1783549785614,None,pp_21,clamp,icub,2022_Jan_10_1135,exp,2021.2.3,59.930443430276256,
left,stop,2,0,2,0,9,5,59,2,1112.6997499465942,None,1,1.0744068622589111,1112.6997499465942,None,1113.8587908744812,None,1114.8903059959412,1115.2409999370575,1114.8903059959412,1115.2409999370575,1113.8587908744812,None,1113.8587908744812,None,1113.8587908744812,None,400,350,1,True,374.65906143188477,-1.0,-1,1119.137377023697,None,pp_21,clamp,icub,2022_Jan_10_1135,exp,2021.2.3,59.930443430276256,
left,go,2,0,2,0,10,0,60,0,1119.6688268184662,None,1,1.7252860069274902,1119.6688268184662,None,1121.5267248153687,None,None,None,None,None,1121.5267248153687,None,1121.5267248153687,None,1121.5267248153687,None,,,0,False,-1.0,-1.0,-1,1121.7650079727173,None,pp_21,clamp,icub,2022_Jan_10_1135,exp,2021.2.3,59.930443430276256,
right,stop,2,0,2,0,10,1,61,5,1122.2593038082123,None,1,0.8199779987335205,1122.2593038082123,None,1123.1830818653107,None,1124.1669049263,1124.518522977829,1124.1669049263,1124.518522977829,1123.1830818653107,None,1123.1830818653107,None,1123.1830818653107,None,450,350,1,True,388.95535469055176,-1.0,-1,1128.4437329769135,None,pp_21,clamp,icub,2022_Jan_10_1135,exp,2021.2.3,59.930443430276256,
right,stop,2,0,2,0,10,2,62,5,1128.9376819133759,None,1,0.4914371967315674,1128.9376819133759,None,1129.5501518249512,None,1130.530021905899,1130.8801758289337,1130.530021905899,1130.8801758289337,1129.5501518249512,None,1129.5501518249512,None,1129.5501518249512,None,450,400,0,True,410.0468158721924,643.378496170044,right,1132.5099549293518,None,pp_21,clamp,icub,2022_Jan_10_1135,exp,2021.2.3,59.930443430276256,
left,go,2,0,2,0,10,3,63,1,1133.0268759727478,None,1,0.47848987579345703,1133.0268759727478,None,1133.6297760009766,None,1134.6636989116669,1135.0173070430756,1134.6636989116669,1135.0173070430756,1133.6297760009766,None,1133.6297760009766,None,1133.6297760009766,None,-1,-1,1,True,360.49795150756836,665.8964157104492,left,1136.538195848465,None,pp_21,clamp,icub,2022_Jan_10_1135,exp,2021.2.3,59.930443430276256,
left,stop,2,0,2,0,10,4,64,2,1137.0587859153748,None,1,0.4536139965057373,1137.0587859153748,None,1137.6031668186188,None,1138.602874994278,1138.9436619281769,1138.602874994278,1138.9436619281769,1137.6031668186188,None,1137.6031668186188,None,1137.6031668186188,None,450,350,0,True,202.41379737854004,686.591625213623,left,1140.4029579162598,None,pp_21,clamp,icub,2022_Jan_10_1135,exp,2021.2.3,59.930443430276256,
right,stop,2,0,2,0,10,5,65,5,1140.909819841385,None,1,0.5467438697814941,1140.909819841385,None,1141.5756378173828,None,1142.5824220180511,1142.9475059509277,1142.5824220180511,1142.9475059509277,1141.5756378173828,None,1141.5756378173828,None,1141.5756378173828,None,400,350,1,True,394.428014755249,-1.0,-1,1146.8704838752747,None,pp_21,clamp,icub,2022_Jan_10_1135,exp,2021.2.3,59.930443430276256,
left,stop,2,0,2,0,11,0,66,2,1147.3636348247528,None,1,0.3533191680908203,1147.3636348247528,None,1147.851343870163,None,1148.831358909607,1149.1898338794708,1148.831358909607,1149.1898338794708,1147.851343870163,None,1147.851343870163,None,1147.851343870163,None,400,400,0,True,353.2388210296631,534.8386764526367,left,1150.6162548065186,None,pp_21,clamp,icub,2022_Jan_10_1135,exp,2021.2.3,59.930443430276256,
left,go,2,0,2,0,11,1,67,0,1151.1312839984894,None,1,0.5669999122619629,1151.1312839984894,None,1151.7989029884338,None,1152.83491897583,1153.1865558624268,1152.83491897583,1153.1865558624268,1151.7989029884338,None,1151.7989029884338,None,1151.7989029884338,None,-1,-1,1,True,445.9223747253418,608.2570552825928,left,1154.7310998439789,None,pp_21,clamp,icub,2022_Jan_10_1135,exp,2021.2.3,59.930443430276256,
left,go,2,0,2,0,11,2,68,0,1155.2276890277863,None,1,0.4857041835784912,1155.2276890277863,None,1155.8330838680267,None,1156.8525729179382,1157.1952970027924,1156.8525729179382,1157.1952970027924,1155.8330838680267,None,1155.8330838680267,None,1155.8330838680267,None,-1,-1,1,True,372.3483085632324,548.8059520721436,left,1158.650111913681,None,pp_21,clamp,icub,2022_Jan_10_1135,exp,2021.2.3,59.930443430276256,
right,go,2,0,2,0,11,3,69,3,1159.1670789718628,None,1,0.49257993698120117,1159.1670789718628,None,1159.769196987152,None,1160.7822909355164,1161.1326348781586,1160.7822909355164,1161.1326348781586,1159.769196987152,None,1159.769196987152,None,1159.769196987152,None,-1,-1,1,True,343.6598777770996,677.5603294372559,right,1162.683159828186,None,pp_21,clamp,icub,2022_Jan_10_1135,exp,2021.2.3,59.930443430276256,
right,go,2,0,2,0,11,4,70,3,1163.190985918045,None,1,0.40331101417541504,1163.190985918045,None,1163.7321870326996,None,1164.7481818199158,1165.1149640083313,1164.7481818199158,1165.1149640083313,1163.7321870326996,None,1163.7321870326996,None,1163.7321870326996,None,-1,-1,1,True,324.4342803955078,542.0303344726562,right,1166.4718308448792,None,pp_21,clamp,icub,2022_Jan_10_1135,exp,2021.2.3,59.930443430276256,
left,stop,2,0,2,0,11,5,71,2,1166.9862518310547,None,1,0.3581559658050537,1166.9862518310547,None,1167.4643788337708,None,1168.4574398994446,1168.8213260173798,1168.4574398994446,1168.8213260173798,1167.4643788337708,None,1167.4643788337708,None,1167.4643788337708,None,350,400,0,True,533.6055755615234,628.6487579345703,left,1170.5232179164886,None,pp_21,clamp,icub,2022_Jan_10_1135,exp,2021.2.3,59.930443430276256,
left,go,2,0,2,0,12,0,72,0,1171.041610956192,None,1,0.7958290576934814,1171.041610956192,None,1171.9491770267487,None,1172.9522550106049,1173.3032569885254,1172.9522550106049,1173.3032569885254,1171.9491770267487,None,1171.9491770267487,None,1171.9491770267487,None,-1,-1,1,True,547.565221786499,643.890380859375,left,1175.0168688297272,None,pp_21,clamp,icub,2022_Jan_10_1135,exp,2021.2.3,59.930443430276256,
right,go,2,0,2,0,12,1,73,4,1175.524314880371,None,1,0.2890141010284424,1175.524314880371,None,1175.9409878253937,None,1176.934408903122,1177.2857539653778,1176.934408903122,1177.2857539653778,1175.9409878253937,None,1175.9409878253937,None,1175.9409878253937,None,-1,-1,1,True,431.868314743042,589.5164012908936,right,1178.8408498764038,None,pp_21,clamp,icub,2022_Jan_10_1135,exp,2021.2.3,59.930443430276256,
right,stop,2,0,2,0,12,2,74,5,1179.3505198955536,None,1,0.29699206352233887,1179.3505198955536,None,1179.7681059837341,None,1180.7820270061493,1181.1470158100128,1180.7820270061493,1181.1470158100128,1179.7681059837341,None,1179.7681059837341,None,1179.7681059837341,None,300,400,0,True,387.10975646972656,505.7377815246582,right,1182.5767929553986,None,pp_21,clamp,icub,2022_Jan_10_1135,exp,2021.2.3,59.930443430276256,
left,go,2,0,2,0,12,3,75,1,1183.0791869163513,None,1,0.36737489700317383,1183.0791869163513,None,1183.5618348121643,None,1184.5629160404205,1184.9186429977417,1184.5629160404205,1184.9186429977417,1183.5618348121643,None,1183.5618348121643,None,1183.5618348121643,None,-1,-1,1,True,398.4353542327881,527.8291702270508,left,1186.3828270435333,None,pp_21,clamp,icub,2022_Jan_10_1135,exp,2021.2.3,59.930443430276256,
left,go,2,0,2,0,12,4,76,0,1186.897157907486,None,1,0.22318792343139648,1186.897157907486,None,1187.2530510425568,None,1188.2715229988098,1188.627121925354,1188.2715229988098,1188.627121925354,1187.2530510425568,None,1187.2530510425568,None,1187.2530510425568,None,-1,-1,1,True,536.8225574493408,538.0468368530273,left,1190.2308678627014,None,pp_21,clamp,icub,2022_Jan_10_1135,exp,2021.2.3,59.930443430276256,
right,go,2,0,2,0,12,5,77,4,1190.7387158870697,None,1,0.36498594284057617,1190.7387158870697,None,1191.2189350128174,None,1192.2436969280243,1192.6056418418884,1192.2436969280243,1192.6056418418884,1191.2189350128174,None,1191.2189350128174,None,1191.2189350128174,None,-1,-1,1,True,405.9324264526367,501.87230110168457,right,1194.0027868747711,None,pp_21,clamp,icub,2022_Jan_10_1135,exp,2021.2.3,59.930443430276256,
right,go,3,0,3,0,0,0,0,4,1204.722077846527,None,1,8.816017866134644,1204.722077846527,None,1213.6531670093536,None,1214.6669948101044,1215.035672903061,1214.6669948101044,1215.035672903061,1213.6531670093536,None,1213.6531670093536,None,1213.6531670093536,None,-1,-1,1,True,357.2580814361572,565.6332969665527,right,1216.4509899616241,None,pp_21,clamp,icub,2022_Jan_10_1135,exp,2021.2.3,59.930443430276256,
left,go,3,0,3,0,0,1,1,1,1216.970806837082,None,1,0.5924060344696045,1216.970806837082,None,1217.6961858272552,None,1218.6990878582,1219.0572760105133,1218.6990878582,1219.0572760105133,1217.6961858272552,None,1217.6961858272552,None,1217.6961858272552,None,-1,-1,1,True,46.88405990600586,630.9285163879395,left,1220.2640759944916,None,pp_21,clamp,icub,2022_Jan_10_1135,exp,2021.2.3,59.930443430276256,
left,stop,3,0,3,0,0,2,2,2,1220.7855579853058,None,1,0.48670291900634766,1220.7855579853058,None,1221.3880589008331,None,1222.4012789726257,1222.7547860145569,1222.4012789726257,1222.7547860145569,1221.3880589008331,None,1221.3880589008331,None,1221.3880589008331,None,300,350,0,True,352.3099422454834,441.103458404541,left,1224.0866839885712,None,pp_21,clamp,icub,2022_Jan_10_1135,exp,2021.2.3,59.930443430276256,
right,stop,3,0,3,0,0,3,3,5,1224.5969879627228,None,1,0.5701489448547363,1224.5969879627228,None,1225.260864019394,None,1226.2709839344025,1226.625051021576,1226.2709839344025,1226.625051021576,1225.260864019394,None,1225.260864019394,None,1225.260864019394,None,250,350,1,True,430.4518699645996,-1.0,-1,1230.5818169116974,None,pp_21,clamp,icub,2022_Jan_10_1135,exp,2021.2.3,59.930443430276256,
right,stop,3,0,3,0,0,4,4,5,1231.0753769874573,None,1,0.3913900852203369,1231.0753769874573,None,1231.5663180351257,None,1232.5668318271637,1232.9270479679108,1232.5668318271637,1232.9270479679108,1231.5663180351257,None,1231.5663180351257,None,1231.5663180351257,None,250,400,0,True,390.2456760406494,558.7012767791748,right,1234.404767036438,None,pp_21,clamp,icub,2022_Jan_10_1135,exp,2021.2.3,59.930443430276256,
right,go,3,0,3,0,0,5,5,3,1234.9334688186646,None,1,0.5917541980743408,1234.9334688186646,None,1235.658087015152,None,1236.668035030365,1237.0198788642883,1236.668035030365,1237.0198788642883,1235.658087015152,None,1235.658087015152,None,1235.658087015152,None,-1,-1,1,True,513.3082866668701,951.6682624816895,right,1239.0208928585052,None,pp_21,clamp,icub,2022_Jan_10_1135,exp,2021.2.3,59.930443430276256,
right,go,3,0,3,0,1,0,6,3,1239.5397098064423,None,1,0.46649599075317383,1239.5397098064423,None,1240.1395490169525,None,1241.1596570014954,1241.5060198307037,1241.1596570014954,1241.5060198307037,1240.1395490169525,None,1240.1395490169525,None,1240.1395490169525,None,-1,-1,1,True,512.3307704925537,695.9366798400879,right,1243.2479689121246,None,pp_21,clamp,icub,2022_Jan_10_1135,exp,2021.2.3,59.930443430276256,
left,stop,3,0,3,0,1,1,7,2,1243.7589859962463,None,1,0.4032859802246094,1243.7589859962463,None,1244.299784898758,None,1245.3321878910065,1245.6693799495697,1245.3321878910065,1245.6693799495697,1244.299784898758,None,1244.299784898758,None,1244.299784898758,None,250,350,1,True,457.1089744567871,-1.0,-1,1249.6507849693298,None,pp_21,clamp,icub,2022_Jan_10_1135,exp,2021.2.3,59.930443430276256,
right,stop,3,0,3,0,1,2,8,5,1250.1826899051666,None,1,0.6869451999664307,1250.1826899051666,None,1250.9843249320984,None,1251.9769349098206,1252.3370900154114,1251.9769349098206,1252.3370900154114,1250.9843249320984,None,1250.9843249320984,None,1250.9843249320984,None,300,350,1,True,471.2650775909424,-1.0,-1,1256.3271088600159,None,pp_21,clamp,icub,2022_Jan_10_1135,exp,2021.2.3,59.930443430276256,
right,go,3,0,3,0,1,3,9,4,1256.860102891922,None,1,0.39368391036987305,1256.860102891922,None,1257.3493468761444,None,1258.3239789009094,1258.6774899959564,1258.3239789009094,1258.6774899959564,1257.3493468761444,None,1257.3493468761444,None,1257.3493468761444,None,-1,-1,1,True,453.55963706970215,710.493803024292,right,1260.4028239250183,None,pp_21,clamp,icub,2022_Jan_10_1135,exp,2021.2.3,59.930443430276256,
left,stop,3,0,3,0,1,4,10,2,1260.9070258140564,None,1,0.356870174407959,1260.9070258140564,None,1261.385815858841,None,1262.389904975891,1262.7454459667206,1262.389904975891,1262.7454459667206,1261.385815858841,None,1261.385815858841,None,1261.385815858841,None,300,400,1,True,711.235523223877,-1.0,-1,1266.9764559268951,None,pp_21,clamp,icub,2022_Jan_10_1135,exp,2021.2.3,59.930443430276256,
left,stop,3,0,3,0,1,5,11,2,1267.5092668533325,None,1,0.41262102127075195,1267.5092668533325,None,1268.0592558383942,None,1269.0436429977417,1269.3951108455658,1269.0436429977417,1269.3951108455658,1268.0592558383942,None,1268.0592558383942,None,1268.0592558383942,None,,,0,False,-1.0,-1.0,-1,1269.9130818843842,None,pp_21,clamp,icub,2022_Jan_10_1135,exp,2021.2.3,59.930443430276256,
