Holder,Action,blocks.thisRepN,blocks.thisTrialN,blocks.thisN,blocks.thisIndex,trials.thisRepN,trials.thisTrialN,trials.thisN,trials.thisIndex,start_msg.started,start_msg.stopped,RespButton_start_trial.keys,RespButton_start_trial.rt,RespButton_start_trial.started,RespButton_start_trial.stopped,GREEN.started,GREEN.stopped,LEFT_RED.started,LEFT_RED.stopped,RIGHT_RED.started,RIGHT_RED.stopped,LEFT_CIRCLE.started,LEFT_CIRCLE.stopped,CENTER_CIRCLE.started,CENTER_CIRCLE.stopped,RIGHT_CIRCLE.started,RIGHT_CIRCLE.stopped,SOUND_DELAY_MS_LEFT,SOUND_DELAY_MS_RIGHT,CORRECT,VALIDITY,RELEASE_TIME,TOUCH_TIME,BOTTLE_RESPONSE_POSITION,text.started,text.stopped,pid,left_position,right_position,date,expName,psychopyVersion,frameRate,
right,go,0,0,0,0,0,0,0,4,43.24379801750183,None,1,4.483886003494263,43.24379801750183,None,47.86106300354004,None,48.87535786628723,49.19767189025879,48.87535786628723,49.19767189025879,47.86106300354004,None,47.86106300354004,None,47.86106300354004,None,-1,-1,0,False,606.2664985656738,2102.268695831299,left,52.47209286689758,None,pp_3,icub,clamp,2021_Dec_21_1036,exp,2021.2.3,60.00846982339274,
right,stop,0,0,0,0,0,1,1,5,52.986822843551636,None,1,8.639012098312378,52.986822843551636,None,61.73452401161194,None,62.73406791687012,63.07679581642151,62.73406791687012,63.07679581642151,61.73452401161194,None,61.73452401161194,None,61.73452401161194,None,500,500,0,True,594.557523727417,1362.6065254211426,right,65.56665897369385,None,pp_3,icub,clamp,2021_Dec_21_1036,exp,2021.2.3,60.00846982339274,
right,go,0,0,0,0,0,2,2,4,66.1001489162445,None,1,1.3009018898010254,66.1001489162445,None,67.50698590278625,None,68.50432085990906,68.86310982704163,68.50432085990906,68.86310982704163,67.50698590278625,None,67.50698590278625,None,67.50698590278625,None,-1,-1,1,True,310.44721603393555,1469.2769050598145,right,71.19647979736328,None,pp_3,icub,clamp,2021_Dec_21_1036,exp,2021.2.3,60.00846982339274,
left,go,0,0,0,0,0,3,3,1,71.71456098556519,None,1,1.493077039718628,71.71456098556519,None,73.3091549873352,None,74.32596898078918,74.68469786643982,74.32596898078918,74.68469786643982,73.3091549873352,None,73.3091549873352,None,73.3091549873352,None,-1,-1,1,True,787.3258590698242,1487.1635437011719,left,77.48151683807373,None,pp_3,icub,clamp,2021_Dec_21_1036,exp,2021.2.3,60.00846982339274,
left,stop,0,0,0,0,0,4,4,2,77.9827618598938,None,1,1.870948076248169,77.9827618598938,None,79.95466899871826,None,80.94860982894897,81.28615188598633,80.94860982894897,81.28615188598633,79.95466899871826,None,79.95466899871826,None,79.95466899871826,None,500,450,1,True,518.7497138977051,-1.0,-1,85.37769484519958,None,pp_3,icub,clamp,2021_Dec_21_1036,exp,2021.2.3,60.00846982339274,
right,go,0,0,0,0,0,5,5,3,85.91031885147095,None,1,0.8249380588531494,85.91031885147095,None,86.83501195907593,None,87.80454182624817,88.16007399559021,87.80454182624817,88.16007399559021,86.83501195907593,None,86.83501195907593,None,86.83501195907593,None,-1,-1,1,True,444.8573589324951,1256.7553520202637,right,90.42800092697144,None,pp_3,icub,clamp,2021_Dec_21_1036,exp,2021.2.3,60.00846982339274,
right,stop,0,0,0,0,1,0,6,5,90.94655585289001,None,1,1.2782518863677979,90.94655585289001,None,92.35284686088562,None,None,None,None,None,92.35284686088562,None,92.35284686088562,None,92.35284686088562,None,,,0,False,-1.0,-1.0,-1,93.01697993278503,None,pp_3,icub,clamp,2021_Dec_21_1036,exp,2021.2.3,60.00846982339274,
right,go,0,0,0,0,1,1,7,3,93.54289698600769,None,1,13.367130041122437,93.54289698600769,None,107.01791596412659,None,107.99958896636963,108.34633994102478,107.99958896636963,108.34633994102478,107.01791596412659,None,107.01791596412659,None,107.01791596412659,None,-1,-1,1,True,248.60668182373047,1764.1983032226562,right,110.9280948638916,None,pp_3,icub,clamp,2021_Dec_21_1036,exp,2021.2.3,60.00846982339274,
left,go,0,0,0,0,1,2,8,1,111.45957589149475,None,1,1.6153531074523926,111.45957589149475,None,113.18120980262756,None,114.18481588363647,114.53391194343567,114.18481588363647,114.53391194343567,113.18120980262756,None,113.18120980262756,None,113.18120980262756,None,-1,-1,1,True,311.66839599609375,1405.9185981750488,left,116.78226494789124,None,pp_3,icub,clamp,2021_Dec_21_1036,exp,2021.2.3,60.00846982339274,
right,go,0,0,0,0,1,3,9,3,117.30738687515259,None,1,1.4781618118286133,117.30738687515259,None,118.88050198554993,None,119.89816284179688,120.25979280471802,119.89816284179688,120.25979280471802,118.88050198554993,None,118.88050198554993,None,118.88050198554993,None,-1,-1,1,True,446.55537605285645,1306.6692352294922,right,122.54099178314209,None,pp_3,icub,clamp,2021_Dec_21_1036,exp,2021.2.3,60.00846982339274,
left,stop,0,0,0,0,1,4,10,2,123.04717683792114,None,1,1.1933648586273193,123.04717683792114,None,124.33611798286438,None,125.3672308921814,125.73310494422913,125.3672308921814,125.73310494422913,124.33611798286438,None,124.33611798286438,None,124.33611798286438,None,550,450,1,True,381.96516036987305,-1.0,-1,129.6048059463501,None,pp_3,icub,clamp,2021_Dec_21_1036,exp,2021.2.3,60.00846982339274,
right,go,0,0,0,0,1,5,11,4,130.13602995872498,None,1,0.753978967666626,130.13602995872498,None,130.9955358505249,None,131.97959089279175,132.32146191596985,131.97959089279175,132.32146191596985,130.9955358505249,None,130.9955358505249,None,130.9955358505249,None,-1,-1,1,True,318.8803195953369,1614.3152713775635,right,134.82291293144226,None,pp_3,icub,clamp,2021_Dec_21_1036,exp,2021.2.3,60.00846982339274,
right,go,0,0,0,0,2,0,12,4,135.35782194137573,None,1,1.1309340000152588,135.35782194137573,None,136.5794529914856,None,137.58260989189148,137.92298698425293,137.58260989189148,137.92298698425293,136.5794529914856,None,136.5794529914856,None,136.5794529914856,None,-1,-1,1,True,388.42105865478516,1591.461181640625,right,140.4374659061432,None,pp_3,icub,clamp,2021_Dec_21_1036,exp,2021.2.3,60.00846982339274,
right,stop,0,0,0,0,2,1,13,5,140.941663980484,None,1,1.3057060241699219,140.941663980484,None,142.35340881347656,None,143.3618869781494,143.72201085090637,143.3618869781494,143.72201085090637,142.35340881347656,None,142.35340881347656,None,142.35340881347656,None,600,450,1,True,447.6625919342041,-1.0,-1,147.69547390937805,None,pp_3,icub,clamp,2021_Dec_21_1036,exp,2021.2.3,60.00846982339274,
right,stop,0,0,0,0,2,2,14,5,148.22798490524292,None,1,0.7740838527679443,148.22798490524292,None,149.0882179737091,None,150.09963178634644,150.44800186157227,150.09963178634644,150.44800186157227,149.0882179737091,None,149.0882179737091,None,149.0882179737091,None,600,500,1,True,295.3968048095703,-1.0,-1,154.26073789596558,None,pp_3,icub,clamp,2021_Dec_21_1036,exp,2021.2.3,60.00846982339274,
right,go,0,0,0,0,2,3,15,4,154.7929379940033,None,1,0.49101996421813965,154.7929379940033,None,155.40571880340576,None,156.38777899742126,156.741308927536,156.38777899742126,156.741308927536,155.40571880340576,None,155.40571880340576,None,155.40571880340576,None,-1,-1,1,True,304.22306060791016,1711.735486984253,right,159.318039894104,None,pp_3,icub,clamp,2021_Dec_21_1036,exp,2021.2.3,60.00846982339274,
right,go,0,0,0,0,2,4,16,4,159.8328709602356,None,1,1.460439920425415,159.8328709602356,None,161.36903381347656,None,162.36038279533386,162.710040807724,162.36038279533386,162.710040807724,161.36903381347656,None,161.36903381347656,None,161.36903381347656,None,-1,-1,1,True,193.17340850830078,2203.95565032959,right,165.64167594909668,None,pp_3,icub,clamp,2021_Dec_21_1036,exp,2021.2.3,60.00846982339274,
left,go,0,0,0,0,2,5,17,1,166.1743519306183,None,1,1.5080020427703857,166.1743519306183,None,167.76836800575256,None,168.78576397895813,None,168.78576397895813,None,167.76836800575256,None,167.76836800575256,None,167.76836800575256,None,,,0,False,-1.0,-1.0,-1,169.14563083648682,None,pp_3,icub,clamp,2021_Dec_21_1036,exp,2021.2.3,60.00846982339274,
right,stop,0,0,0,0,3,0,18,5,169.6395559310913,None,1,2.1943891048431396,169.6395559310913,None,171.9673240184784,None,172.9597589969635,173.28371381759644,172.9597589969635,173.28371381759644,171.9673240184784,None,171.9673240184784,None,171.9673240184784,None,,,0,False,3000.5805492401123,-1.0,-1,176.83084678649902,None,pp_3,icub,clamp,2021_Dec_21_1036,exp,2021.2.3,60.00846982339274,
left,stop,0,0,0,0,3,1,19,2,177.36320781707764,None,1,1.56673002243042,177.36320781707764,None,179.01711201667786,None,180.02870798110962,180.38312292099,180.02870798110962,180.38312292099,179.01711201667786,None,179.01711201667786,None,179.01711201667786,None,600,550,1,True,461.94911003112793,-1.0,-1,184.37300395965576,None,pp_3,icub,clamp,2021_Dec_21_1036,exp,2021.2.3,60.00846982339274,
left,go,0,0,0,0,3,2,20,0,184.86795687675476,None,1,0.8589141368865967,184.86795687675476,None,185.85186982154846,None,186.83607292175293,187.20082998275757,186.83607292175293,187.20082998275757,185.85186982154846,None,185.85186982154846,None,185.85186982154846,None,-1,-1,1,True,170.19915580749512,936.7315769195557,left,188.8476870059967,None,pp_3,icub,clamp,2021_Dec_21_1036,exp,2021.2.3,60.00846982339274,
right,go,0,0,0,0,3,3,21,3,189.3767158985138,None,1,0.8795130252838135,189.3767158985138,None,190.35673594474792,None,191.36413478851318,191.70555090904236,191.36413478851318,191.70555090904236,190.35673594474792,None,190.35673594474792,None,190.35673594474792,None,,,0,False,-1.0,-1.0,-1,192.23914980888367,None,pp_3,icub,clamp,2021_Dec_21_1036,exp,2021.2.3,60.00846982339274,
right,go,0,0,0,0,3,4,22,4,192.76806378364563,None,1,2.3797481060028076,192.76806378364563,None,195.23825001716614,None,196.21429181098938,196.56430387496948,196.21429181098938,196.56430387496948,195.23825001716614,None,195.23825001716614,None,195.23825001716614,None,-1,-1,1,True,278.72347831726074,1440.263032913208,right,198.86195278167725,None,pp_3,icub,clamp,2021_Dec_21_1036,exp,2021.2.3,60.00846982339274,
left,go,0,0,0,0,3,5,23,0,199.37803387641907,None,1,0.8402588367462158,199.37803387641907,None,200.29418182373047,None,201.30304789543152,201.64742994308472,201.30304789543152,201.64742994308472,200.29418182373047,None,200.29418182373047,None,200.29418182373047,None,-1,-1,1,True,293.5948371887207,988.109827041626,left,203.45078682899475,None,pp_3,icub,clamp,2021_Dec_21_1036,exp,2021.2.3,60.00846982339274,
left,go,0,0,0,0,4,0,24,0,203.9586808681488,None,1,0.9085569381713867,203.9586808681488,None,204.99500179290771,None,206.02185201644897,206.36557388305664,206.02185201644897,206.36557388305664,204.99500179290771,None,204.99500179290771,None,204.99500179290771,None,-1,-1,1,True,218.38068962097168,1025.9413719177246,left,208.13185691833496,None,pp_3,icub,clamp,2021_Dec_21_1036,exp,2021.2.3,60.00846982339274,
left,go,0,0,0,0,4,1,25,0,208.63936400413513,None,1,0.8590669631958008,208.63936400413513,None,209.614511013031,None,210.60934782028198,210.9699649810791,210.60934782028198,210.9699649810791,209.614511013031,None,209.614511013031,None,209.614511013031,None,-1,-1,1,True,184.71550941467285,1703.0625343322754,left,213.38917589187622,None,pp_3,icub,clamp,2021_Dec_21_1036,exp,2021.2.3,60.00846982339274,
left,stop,0,0,0,0,4,2,26,2,213.90321278572083,None,1,0.9777631759643555,213.90321278572083,None,215.001708984375,None,216.01939392089844,216.37882280349731,216.01939392089844,216.37882280349731,215.001708984375,None,215.001708984375,None,215.001708984375,None,650,550,1,True,212.30077743530273,-1.0,-1,220.11395597457886,None,pp_3,icub,clamp,2021_Dec_21_1036,exp,2021.2.3,60.00846982339274,
right,go,0,0,0,0,4,3,27,4,220.64606499671936,None,1,0.6419088840484619,220.64606499671936,None,221.3814468383789,None,222.35406184196472,222.70590496063232,222.35406184196472,222.70590496063232,221.3814468383789,None,221.3814468383789,None,221.3814468383789,None,-1,-1,1,True,572.2568035125732,1384.5031261444092,right,225.21083879470825,None,pp_3,icub,clamp,2021_Dec_21_1036,exp,2021.2.3,60.00846982339274,
right,stop,0,0,0,0,4,4,28,5,225.71471285820007,None,1,1.0698599815368652,225.71471285820007,None,226.8751938343048,None,227.86967086791992,228.23014378547668,227.86967086791992,228.23014378547668,226.8751938343048,None,226.8751938343048,None,226.8751938343048,None,700,550,1,True,179.1536808013916,-1.0,-1,231.95798778533936,None,pp_3,icub,clamp,2021_Dec_21_1036,exp,2021.2.3,60.00846982339274,
right,stop,0,0,0,0,4,5,29,5,232.48980379104614,None,1,0.591850996017456,232.48980379104614,None,233.16355800628662,None,234.14527297019958,234.50302696228027,234.14527297019958,234.50302696228027,233.16355800628662,None,233.16355800628662,None,233.16355800628662,None,700,600,1,True,109.76648330688477,-1.0,-1,238.17627787590027,None,pp_3,icub,clamp,2021_Dec_21_1036,exp,2021.2.3,60.00846982339274,
right,go,0,0,0,0,5,0,30,3,238.70924592018127,None,1,0.4863879680633545,238.70924592018127,None,239.32204389572144,None,240.32966685295105,240.67923498153687,240.32966685295105,240.67923498153687,239.32204389572144,None,239.32204389572144,None,239.32204389572144,None,,,0,False,3000.192642211914,-1.0,-1,244.2140657901764,None,pp_3,icub,clamp,2021_Dec_21_1036,exp,2021.2.3,60.00846982339274,
left,stop,0,0,0,0,5,1,31,2,244.7085428237915,None,1,1.8069260120391846,244.7085428237915,None,246.61621379852295,None,247.6219048500061,247.98352789878845,247.6219048500061,247.98352789878845,246.61621379852295,None,246.61621379852295,None,246.61621379852295,None,,,0,False,-1.0,-1.0,-1,248.41176390647888,None,pp_3,icub,clamp,2021_Dec_21_1036,exp,2021.2.3,60.00846982339274,
left,go,0,0,0,0,5,2,32,1,248.94464588165283,None,1,1.6500098705291748,248.94464588165283,None,250.73307490348816,None,251.7104640007019,252.07476592063904,251.7104640007019,252.07476592063904,250.73307490348816,None,250.73307490348816,None,250.73307490348816,None,-1,-1,1,True,35.547733306884766,851.9723415374756,left,253.52799582481384,None,pp_3,icub,clamp,2021_Dec_21_1036,exp,2021.2.3,60.00846982339274,
left,stop,0,0,0,0,5,3,33,2,254.04806280136108,None,1,1.0809500217437744,254.04806280136108,None,255.2094748020172,None,256.2257089614868,256.58669090270996,256.2257089614868,256.58669090270996,255.2094748020172,None,255.2094748020172,None,255.2094748020172,None,700,650,0,True,399.1715908050537,785.3620052337646,left,258.307580947876,None,pp_3,icub,clamp,2021_Dec_21_1036,exp,2021.2.3,60.00846982339274,
left,go,0,0,0,0,5,4,34,1,258.8369288444519,None,1,1.1707439422607422,258.8369288444519,None,260.1196479797363,None,261.13145685195923,261.48177886009216,261.13145685195923,261.48177886009216,260.1196479797363,None,260.1196479797363,None,260.1196479797363,None,,,0,False,3001.0294914245605,-1.0,-1,265.0137128829956,None,pp_3,icub,clamp,2021_Dec_21_1036,exp,2021.2.3,60.00846982339274,
right,go,0,0,0,0,5,5,35,3,265.54709482192993,None,1,1.9879028797149658,265.54709482192993,None,267.63537788391113,None,268.65659189224243,269.0166277885437,268.65659189224243,269.0166277885437,267.63537788391113,None,267.63537788391113,None,267.63537788391113,None,-1,-1,1,True,323.32706451416016,1351.212978363037,right,271.2258129119873,None,pp_3,icub,clamp,2021_Dec_21_1036,exp,2021.2.3,60.00846982339274,
right,stop,0,0,0,0,6,0,36,5,271.7225558757782,None,1,2.0648229122161865,271.7225558757782,None,273.8731608390808,None,274.9064929485321,275.25261783599854,274.9064929485321,275.25261783599854,273.8731608390808,None,273.8731608390808,None,273.8731608390808,None,650,650,1,True,178.08008193969727,-1.0,-1,278.95665097236633,None,pp_3,icub,clamp,2021_Dec_21_1036,exp,2021.2.3,60.00846982339274,
left,stop,0,0,0,0,6,1,37,2,279.4882628917694,None,1,0.7132918834686279,279.4882628917694,None,280.28732895851135,None,281.2688729763031,281.62166380882263,281.2688729763031,281.62166380882263,280.28732895851135,None,280.28732895851135,None,280.28732895851135,None,650,700,1,True,238.75045776367188,-1.0,-1,285.3938639163971,None,pp_3,icub,clamp,2021_Dec_21_1036,exp,2021.2.3,60.00846982339274,
right,stop,0,0,0,0,6,2,38,5,285.9256868362427,None,1,0.6037919521331787,285.9256868362427,None,286.6624209880829,None,287.64288687705994,288.0078649520874,287.64288687705994,288.0078649520874,286.6624209880829,None,286.6624209880829,None,286.6624209880829,None,,,0,False,3000.1165866851807,-1.0,-1,291.54397892951965,None,pp_3,icub,clamp,2021_Dec_21_1036,exp,2021.2.3,60.00846982339274,
right,go,0,0,0,0,6,3,39,3,292.0393719673157,None,1,1.4976539611816406,292.0393719673157,None,293.63198685646057,None,294.66013288497925,295.00510692596436,294.66013288497925,295.00510692596436,293.63198685646057,None,293.63198685646057,None,293.63198685646057,None,-1,-1,1,True,278.5763740539551,1071.0117816925049,right,296.8534219264984,None,pp_3,icub,clamp,2021_Dec_21_1036,exp,2021.2.3,60.00846982339274,
left,stop,0,0,0,0,6,4,40,2,297.37846994400024,None,1,0.8454651832580566,297.37846994400024,None,298.3528928756714,None,299.3654639720917,299.71283292770386,299.3654639720917,299.71283292770386,298.3528928756714,None,298.3528928756714,None,298.3528928756714,None,,,0,False,-1.0,-1.0,-1,300.1061828136444,None,pp_3,icub,clamp,2021_Dec_21_1036,exp,2021.2.3,60.00846982339274,
left,stop,0,0,0,0,6,5,41,2,300.60073590278625,None,1,1.769700050354004,300.60073590278625,None,302.4512538909912,None,303.4393548965454,303.79852294921875,303.4393548965454,303.79852294921875,302.4512538909912,None,302.4512538909912,None,302.4512538909912,None,700,700,0,True,239.57252502441406,969.2716598510742,left,305.52576184272766,None,pp_3,icub,clamp,2021_Dec_21_1036,exp,2021.2.3,60.00846982339274,
left,go,0,0,0,0,7,0,42,1,306.0331439971924,None,1,0.9546151161193848,306.0331439971924,None,307.0732510089874,None,308.0815849304199,308.4296410083771,308.0815849304199,308.4296410083771,307.0732510089874,None,307.0732510089874,None,307.0732510089874,None,-1,-1,1,True,282.26208686828613,1466.1717414855957,left,310.70154190063477,None,pp_3,icub,clamp,2021_Dec_21_1036,exp,2021.2.3,60.00846982339274,
right,go,0,0,0,0,7,1,43,3,311.20670986175537,None,1,0.9850080013275146,311.20670986175537,None,312.307541847229,None,313.32854890823364,313.68648982048035,313.32854890823364,313.68648982048035,312.307541847229,None,312.307541847229,None,312.307541847229,None,,,0,False,-1.0,-1.0,-1,314.0522918701172,None,pp_3,icub,clamp,2021_Dec_21_1036,exp,2021.2.3,60.00846982339274,
left,go,0,0,0,0,7,2,44,0,314.5470290184021,None,1,1.8953399658203125,314.5470290184021,None,316.58190298080444,None,317.55968594551086,317.9163739681244,317.55968594551086,317.9163739681244,316.58190298080444,None,316.58190298080444,None,316.58190298080444,None,-1,-1,1,True,578.1474113464355,948.2192993164062,left,319.9939568042755,None,pp_3,icub,clamp,2021_Dec_21_1036,exp,2021.2.3,60.00846982339274,
left,stop,0,0,0,0,7,3,45,2,320.51208782196045,None,1,0.7505180835723877,320.51208782196045,None,321.3630619049072,None,322.3880579471588,322.75017189979553,322.3880579471588,322.75017189979553,321.3630619049072,None,321.3630619049072,None,321.3630619049072,None,650,700,1,True,513.6098861694336,-1.0,-1,326.7531979084015,None,pp_3,icub,clamp,2021_Dec_21_1036,exp,2021.2.3,60.00846982339274,
left,go,0,0,0,0,7,4,46,1,327.2852668762207,None,1,0.7120668888092041,327.2852668762207,None,328.0832579135895,None,329.06742691993713,329.4256479740143,329.06742691993713,329.4256479740143,328.0832579135895,None,328.0832579135895,None,328.0832579135895,None,-1,-1,1,True,358.6740493774414,1040.231704711914,left,331.37806701660156,None,pp_3,icub,clamp,2021_Dec_21_1036,exp,2021.2.3,60.00846982339274,
left,go,0,0,0,0,7,5,47,1,331.9161138534546,None,1,0.752371072769165,331.9161138534546,None,332.770546913147,None,333.779189825058,334.13628792762756,333.779189825058,334.13628792762756,332.770546913147,None,332.770546913147,None,332.770546913147,None,-1,-1,1,True,405.0896167755127,941.5998458862305,left,336.01224398612976,None,pp_3,icub,clamp,2021_Dec_21_1036,exp,2021.2.3,60.00846982339274,
left,stop,0,0,0,0,8,0,48,2,336.5184497833252,None,1,0.7845959663391113,336.5184497833252,None,337.4311668872833,None,338.44196701049805,338.80132389068604,338.44196701049805,338.80132389068604,337.4311668872833,None,337.4311668872833,None,337.4311668872833,None,700,700,0,True,292.94323921203613,935.99534034729,left,340.55837178230286,None,pp_3,icub,clamp,2021_Dec_21_1036,exp,2021.2.3,60.00846982339274,
right,stop,0,0,0,0,8,1,49,5,341.0786108970642,None,1,1.145117998123169,341.0786108970642,None,342.3043839931488,None,343.3368079662323,343.69231390953064,343.3368079662323,343.69231390953064,342.3043839931488,None,342.3043839931488,None,342.3043839931488,None,650,700,0,True,305.8929443359375,774.5428085327148,right,345.2634057998657,None,pp_3,icub,clamp,2021_Dec_21_1036,exp,2021.2.3,60.00846982339274,
left,go,0,0,0,0,8,2,50,0,345.77448987960815,None,1,1.4460370540618896,345.77448987960815,None,347.3112199306488,None,348.30497884750366,348.65809082984924,348.30497884750366,348.65809082984924,347.3112199306488,None,347.3112199306488,None,347.3112199306488,None,-1,-1,1,True,161.9243621826172,1638.3166313171387,left,350.9880418777466,None,pp_3,icub,clamp,2021_Dec_21_1036,exp,2021.2.3,60.00846982339274,
left,go,0,0,0,0,8,3,51,0,351.4872148036957,None,1,1.0734100341796875,351.4872148036957,None,352.64627599716187,None,353.6616368293762,354.0182249546051,353.6616368293762,354.0182249546051,352.64627599716187,None,352.64627599716187,None,352.64627599716187,None,-1,-1,1,True,311.42377853393555,1531.3563346862793,left,356.39074993133545,None,pp_3,icub,clamp,2021_Dec_21_1036,exp,2021.2.3,60.00846982339274,
left,stop,0,0,0,0,8,4,52,2,356.899395942688,None,1,0.695263147354126,356.899395942688,None,357.6901137828827,None,358.69398379325867,359.0519309043884,358.69398379325867,359.0519309043884,357.6901137828827,None,357.6901137828827,None,357.6901137828827,None,650,650,1,True,433.7899684906006,-1.0,-1,363.00662088394165,None,pp_3,icub,clamp,2021_Dec_21_1036,exp,2021.2.3,60.00846982339274,
left,go,0,0,0,0,8,5,53,1,363.5386128425598,None,1,0.5346240997314453,363.5386128425598,None,364.2126889228821,None,365.1913228034973,365.5428237915039,365.1913228034973,365.5428237915039,364.2126889228821,None,364.2126889228821,None,364.2126889228821,None,-1,-1,1,True,506.80994987487793,1556.7994117736816,left,368.17797780036926,None,pp_3,icub,clamp,2021_Dec_21_1036,exp,2021.2.3,60.00846982339274,
left,go,0,0,0,0,9,0,54,0,368.7130928039551,None,1,0.71846604347229,368.7130928039551,None,369.5641210079193,None,370.56016778945923,370.9148859977722,370.56016778945923,370.9148859977722,369.5641210079193,None,369.5641210079193,None,369.5641210079193,None,-1,-1,1,True,108.38842391967773,1769.4084644317627,left,373.3481318950653,None,pp_3,icub,clamp,2021_Dec_21_1036,exp,2021.2.3,60.00846982339274,
left,go,0,0,0,0,9,1,55,1,373.8508448600769,None,1,0.9958438873291016,373.8508448600769,None,374.9483788013458,None,375.9530999660492,376.29372382164,375.9530999660492,376.29372382164,374.9483788013458,None,374.9483788013458,None,374.9483788013458,None,-1,-1,1,True,569.300651550293,1852.6685237884521,left,379.2713270187378,None,pp_3,icub,clamp,2021_Dec_21_1036,exp,2021.2.3,60.00846982339274,
right,go,0,0,0,0,9,2,56,4,379.78944396972656,None,1,0.9170730113983154,379.78944396972656,None,380.82527685165405,None,381.8565459251404,382.20969581604004,381.8565459251404,382.20969581604004,380.82527685165405,None,380.82527685165405,None,380.82527685165405,None,-1,-1,1,True,122.42770195007324,1522.0296382904053,right,384.342227935791,None,pp_3,icub,clamp,2021_Dec_21_1036,exp,2021.2.3,60.00846982339274,
right,stop,0,0,0,0,9,3,57,5,384.8538179397583,None,1,1.086702823638916,384.8538179397583,None,386.01621890068054,None,387.01701283454895,387.3757288455963,387.01701283454895,387.3757288455963,386.01621890068054,None,386.01621890068054,None,386.01621890068054,None,700,650,1,True,12.665987014770508,-1.0,-1,390.9119508266449,None,pp_3,icub,clamp,2021_Dec_21_1036,exp,2021.2.3,60.00846982339274,
right,go,0,0,0,0,9,4,58,3,391.4433698654175,None,1,0.6777229309082031,391.4433698654175,None,392.24164295196533,None,393.2203998565674,393.54714584350586,393.2203998565674,393.54714584350586,392.24164295196533,None,392.24164295196533,None,392.24164295196533,None,-1,-1,1,True,425.6906509399414,1050.468921661377,right,395.58110094070435,None,pp_3,icub,clamp,2021_Dec_21_1036,exp,2021.2.3,60.00846982339274,
right,go,0,0,0,0,9,5,59,3,396.0985507965088,None,1,1.0437870025634766,396.0985507965088,None,397.25776195526123,None,398.2864158153534,398.65051078796387,398.2864158153534,398.65051078796387,397.25776195526123,None,397.25776195526123,None,397.25776195526123,None,-1,-1,1,True,247.8652000427246,1347.8031158447266,right,400.7631049156189,None,pp_3,icub,clamp,2021_Dec_21_1036,exp,2021.2.3,60.00846982339274,
left,go,0,0,0,0,10,0,60,1,401.2833797931671,None,1,0.9023129940032959,401.2833797931671,None,402.26086688041687,None,403.28632378578186,403.6402699947357,403.28632378578186,403.6402699947357,402.26086688041687,None,402.26086688041687,None,402.26086688041687,None,-1,-1,1,True,318.80784034729004,1497.3037242889404,left,405.97362780570984,None,pp_3,icub,clamp,2021_Dec_21_1036,exp,2021.2.3,60.00846982339274,
left,go,0,0,0,0,10,1,61,0,406.5096158981323,None,1,0.8928658962249756,406.5096158981323,None,407.4878649711609,None,408.507043838501,408.86193799972534,408.507043838501,408.86193799972534,407.4878649711609,None,407.4878649711609,None,407.4878649711609,None,-1,-1,1,True,233.21223258972168,1189.3787384033203,left,410.81196188926697,None,pp_3,icub,clamp,2021_Dec_21_1036,exp,2021.2.3,60.00846982339274,
right,go,0,0,0,0,10,2,62,4,411.34385800361633,None,1,0.7468380928039551,411.34385800361633,None,412.19652581214905,None,413.2126588821411,413.57383394241333,413.2126588821411,413.57383394241333,412.19652581214905,None,412.19652581214905,None,412.19652581214905,None,-1,-1,1,True,300.6160259246826,1353.4975051879883,right,415.754784822464,None,pp_3,icub,clamp,2021_Dec_21_1036,exp,2021.2.3,60.00846982339274,
left,go,0,0,0,0,10,3,63,0,416.28443479537964,None,1,0.9108850955963135,416.28443479537964,None,417.3178858757019,None,418.3194799423218,418.6646068096161,418.3194799423218,418.6646068096161,417.3178858757019,None,417.3178858757019,None,417.3178858757019,None,,,0,False,-1.0,-1.0,-1,419.1156749725342,None,pp_3,icub,clamp,2021_Dec_21_1036,exp,2021.2.3,60.00846982339274,
right,stop,0,0,0,0,10,4,64,5,419.63777780532837,None,1,1.1334328651428223,419.63777780532837,None,420.8672499656677,None,421.85404992103577,422.2012507915497,421.85404992103577,422.2012507915497,420.8672499656677,None,420.8672499656677,None,420.8672499656677,None,700,700,1,True,461.49373054504395,-1.0,-1,426.23100185394287,None,pp_3,icub,clamp,2021_Dec_21_1036,exp,2021.2.3,60.00846982339274,
left,go,0,0,0,0,10,5,65,0,426.72419691085815,None,1,0.7668888568878174,426.72419691085815,None,427.584312915802,None,428.56310296058655,428.91813588142395,428.56310296058655,428.91813588142395,427.584312915802,None,427.584312915802,None,427.584312915802,None,-1,-1,1,True,557.7988624572754,1159.4877243041992,left,431.16774892807007,None,pp_3,icub,clamp,2021_Dec_21_1036,exp,2021.2.3,60.00846982339274,
left,go,0,0,0,0,11,0,66,1,431.7033588886261,None,1,1.1204419136047363,431.7033588886261,None,432.93010783195496,None,433.93826699256897,434.2661578655243,433.93826699256897,434.2661578655243,432.93010783195496,None,432.93010783195496,None,432.93010783195496,None,-1,-1,1,True,612.5946044921875,1305.140733718872,left,436.7466368675232,None,pp_3,icub,clamp,2021_Dec_21_1036,exp,2021.2.3,60.00846982339274,
left,stop,0,0,0,0,11,1,67,2,437.2648198604584,None,1,0.933556079864502,437.2648198604584,None,438.29849195480347,None,439.3233268260956,439.673054933548,439.3233268260956,439.673054933548,438.29849195480347,None,438.29849195480347,None,438.29849195480347,None,700,750,1,True,581.7253589630127,-1.0,-1,443.78517484664917,None,pp_3,icub,clamp,2021_Dec_21_1036,exp,2021.2.3,60.00846982339274,
right,stop,0,0,0,0,11,2,68,5,444.31624698638916,None,1,0.8316318988800049,444.31624698638916,None,445.2362389564514,None,446.2106828689575,446.5760359764099,446.2106828689575,446.5760359764099,445.2362389564514,None,445.2362389564514,None,445.2362389564514,None,750,750,1,True,722.5978374481201,-1.0,-1,450.8623960018158,None,pp_3,icub,clamp,2021_Dec_21_1036,exp,2021.2.3,60.00846982339274,
right,go,0,0,0,0,11,3,69,3,451.3952708244324,None,1,0.5516149997711182,451.3952708244324,None,452.0711967945099,None,453.07743191719055,453.42549991607666,453.07743191719055,453.42549991607666,452.0711967945099,None,452.0711967945099,None,452.0711967945099,None,-1,-1,1,True,330.62124252319336,1652.4991989135742,right,455.924546957016,None,pp_3,icub,clamp,2021_Dec_21_1036,exp,2021.2.3,60.00846982339274,
left,go,0,0,0,0,11,4,70,1,456.44623589515686,None,1,0.9955699443817139,456.44623589515686,None,457.526957988739,None,458.54489183425903,458.87043499946594,458.54489183425903,458.87043499946594,457.526957988739,None,457.526957988739,None,457.526957988739,None,-1,-1,1,True,746.8972206115723,1354.0053367614746,left,461.4980568885803,None,pp_3,icub,clamp,2021_Dec_21_1036,exp,2021.2.3,60.00846982339274,
left,go,0,0,0,0,11,5,71,0,462.00368785858154,None,1,0.9407579898834229,462.00368785858154,None,463.0436508655548,None,464.06274485588074,464.4188950061798,464.06274485588074,464.4188950061798,463.0436508655548,None,463.0436508655548,None,463.0436508655548,None,-1,-1,1,True,663.5031700134277,1127.1674633026123,left,466.7439408302307,None,pp_3,icub,clamp,2021_Dec_21_1036,exp,2021.2.3,60.00846982339274,
left,go,0,0,0,0,12,0,72,0,467.2678928375244,None,1,0.7274839878082275,467.2678928375244,None,468.1153028011322,None,469.1480288505554,469.4761619567871,469.1480288505554,469.4761619567871,468.1153028011322,None,468.1153028011322,None,468.1153028011322,None,-1,-1,1,True,693.1240558624268,1148.9992141723633,left,471.86663579940796,None,pp_3,icub,clamp,2021_Dec_21_1036,exp,2021.2.3,60.00846982339274,
right,go,0,0,0,0,12,1,73,4,472.36958599090576,None,1,0.9547619819641113,472.36958599090576,None,473.4100058078766,None,474.435742855072,474.78020191192627,474.435742855072,474.78020191192627,473.4100058078766,None,473.4100058078766,None,473.4100058078766,None,-1,-1,1,True,598.3033180236816,1059.1676235198975,right,476.9677929878235,None,pp_3,icub,clamp,2021_Dec_21_1036,exp,2021.2.3,60.00846982339274,
right,go,0,0,0,0,12,2,74,4,477.47409200668335,None,1,0.9333000183105469,477.47409200668335,None,478.508358001709,None,479.53687596321106,479.89621591567993,479.53687596321106,479.89621591567993,478.508358001709,None,478.508358001709,None,478.508358001709,None,-1,-1,1,True,562.6804828643799,1142.521858215332,right,482.1094808578491,None,pp_3,icub,clamp,2021_Dec_21_1036,exp,2021.2.3,60.00846982339274,
right,go,0,0,0,0,12,3,75,4,482.6271479129791,None,1,0.806239128112793,482.6271479129791,None,483.54318499565125,None,484.54444193840027,484.8891317844391,484.54444193840027,484.8891317844391,483.54318499565125,None,483.54318499565125,None,483.54318499565125,None,-1,-1,1,True,321.5603828430176,1276.4201164245605,right,487.0168409347534,None,pp_3,icub,clamp,2021_Dec_21_1036,exp,2021.2.3,60.00846982339274,
right,go,0,0,0,0,12,4,76,3,487.5266377925873,None,1,1.3876440525054932,487.5266377925873,None,488.9996109008789,None,490.03162598609924,490.3874177932739,490.03162598609924,490.3874177932739,488.9996109008789,None,488.9996109008789,None,488.9996109008789,None,-1,-1,1,True,354.04181480407715,1479.6767234802246,right,492.70073080062866,None,pp_3,icub,clamp,2021_Dec_21_1036,exp,2021.2.3,60.00846982339274,
right,go,0,0,0,0,12,5,77,3,493.2289090156555,None,1,0.7636418342590332,493.2289090156555,None,494.0731658935547,None,495.06860995292664,495.41696882247925,495.06860995292664,495.41696882247925,494.0731658935547,None,494.0731658935547,None,494.0731658935547,None,-1,-1,1,True,492.41137504577637,1259.2558860778809,right,497.72578382492065,None,pp_3,icub,clamp,2021_Dec_21_1036,exp,2021.2.3,60.00846982339274,
right,stop,1,0,1,0,0,0,0,5,514.001060962677,None,1,37.97188997268677,514.001060962677,None,552.0893869400024,None,553.1066989898682,553.4665420055389,553.1066989898682,553.4665420055389,552.0893869400024,None,552.0893869400024,None,552.0893869400024,None,750,800,1,True,860.252857208252,-1.0,-1,557.8623919487,None,pp_3,icub,clamp,2021_Dec_21_1036,exp,2021.2.3,60.00846982339274,
right,go,1,0,1,0,0,1,1,4,558.3952097892761,None,1,0.788283109664917,558.3952097892761,None,559.316990852356,None,560.2901899814606,560.6573309898376,560.2901899814606,560.6573309898376,559.316990852356,None,559.316990852356,None,559.316990852356,None,-1,-1,1,True,593.393087387085,1181.8852424621582,right,562.9657769203186,None,pp_3,icub,clamp,2021_Dec_21_1036,exp,2021.2.3,60.00846982339274,
left,go,1,0,1,0,0,2,2,1,563.4936208724976,None,1,1.0422940254211426,563.4936208724976,None,564.6495859622955,None,565.6582260131836,566.0007050037384,565.6582260131836,566.0007050037384,564.6495859622955,None,564.6495859622955,None,564.6495859622955,None,-1,-1,1,True,377.349853515625,1087.3095989227295,left,568.0199778079987,None,pp_3,icub,clamp,2021_Dec_21_1036,exp,2021.2.3,60.00846982339274,
left,stop,1,0,1,0,0,3,3,2,568.5273849964142,None,1,1.753481149673462,568.5273849964142,None,570.3719358444214,None,571.3671338558197,571.718211889267,571.3671338558197,571.718211889267,570.3719358444214,None,570.3719358444214,None,570.3719358444214,None,750,850,1,True,794.9583530426025,-1.0,-1,576.0449299812317,None,pp_3,icub,clamp,2021_Dec_21_1036,exp,2021.2.3,60.00846982339274,
left,go,1,0,1,0,0,4,4,0,576.5754749774933,None,1,0.5680749416351318,576.5754749774933,None,577.2503368854523,None,578.2209708690643,578.5831308364868,578.2209708690643,578.5831308364868,577.2503368854523,None,577.2503368854523,None,577.2503368854523,None,-1,-1,1,True,312.3807907104492,1249.3219375610352,left,580.7048637866974,None,pp_3,icub,clamp,2021_Dec_21_1036,exp,2021.2.3,60.00846982339274,
right,stop,1,0,1,0,0,5,5,5,581.2240769863129,None,1,0.9649629592895508,581.2240769863129,None,582.2648048400879,None,583.2598938941956,583.6156678199768,583.2598938941956,583.6156678199768,582.2648048400879,None,582.2648048400879,None,582.2648048400879,None,800,850,1,True,558.1865310668945,-1.0,-1,587.6897118091583,None,pp_3,icub,clamp,2021_Dec_21_1036,exp,2021.2.3,60.00846982339274,
right,stop,1,0,1,0,1,0,6,5,588.222737789154,None,1,0.7018580436706543,588.222737789154,None,589.0196709632874,None,590.0220658779144,590.3672850131989,590.0220658779144,590.3672850131989,589.0196709632874,None,589.0196709632874,None,589.0196709632874,None,800,900,1,True,265.8190727233887,-1.0,-1,594.1801278591156,None,pp_3,icub,clamp,2021_Dec_21_1036,exp,2021.2.3,60.00846982339274,
left,stop,1,0,1,0,1,1,7,2,594.7142109870911,None,1,0.4221940040588379,594.7142109870911,None,595.2652878761292,None,596.2500557899475,596.6065218448639,596.2500557899475,596.6065218448639,595.2652878761292,None,595.2652878761292,None,595.2652878761292,None,800,950,1,True,643.791675567627,-1.0,-1,600.7808818817139,None,pp_3,icub,clamp,2021_Dec_21_1036,exp,2021.2.3,60.00846982339274,
right,go,1,0,1,0,1,2,8,3,601.3136138916016,None,1,0.5748209953308105,601.3136138916016,None,601.9868109226227,None,603.0005738735199,603.3537909984589,603.0005738735199,603.3537909984589,601.9868109226227,None,601.9868109226227,None,601.9868109226227,None,-1,-1,1,True,510.117769241333,887.859582901001,right,605.2687759399414,None,pp_3,icub,clamp,2021_Dec_21_1036,exp,2021.2.3,60.00846982339274,
right,go,1,0,1,0,1,3,9,4,605.7730689048767,None,1,0.7259988784790039,605.7730689048767,None,606.6226840019226,None,607.6313078403473,607.9841079711914,607.6313078403473,607.9841079711914,606.6226840019226,None,606.6226840019226,None,606.6226840019226,None,-1,-1,1,True,508.7416172027588,1320.7197189331055,right,610.3456799983978,None,pp_3,icub,clamp,2021_Dec_21_1036,exp,2021.2.3,60.00846982339274,
left,go,1,0,1,0,1,4,10,1,610.8802468776703,None,1,0.7507448196411133,610.8802468776703,None,611.731122970581,None,612.7454907894135,613.0930240154266,612.7454907894135,613.0930240154266,611.731122970581,None,611.731122970581,None,611.731122970581,None,-1,-1,1,True,501.7983913421631,1467.30637550354,left,615.5926427841187,None,pp_3,icub,clamp,2021_Dec_21_1036,exp,2021.2.3,60.00846982339274,
right,go,1,0,1,0,1,5,11,3,616.1102728843689,None,1,0.6084990501403809,616.1102728843689,None,616.8332087993622,None,617.8607838153839,618.2150809764862,617.8607838153839,618.2150809764862,616.8332087993622,None,616.8332087993622,None,616.8332087993622,None,-1,-1,1,True,220.40295600891113,1448.3368396759033,right,620.4072918891907,None,pp_3,icub,clamp,2021_Dec_21_1036,exp,2021.2.3,60.00846982339274,
right,go,1,0,1,0,2,0,12,3,620.9234459400177,None,1,0.6624460220336914,620.9234459400177,None,621.7094268798828,None,622.7264049053192,623.0777578353882,622.7264049053192,623.0777578353882,621.7094268798828,None,621.7094268798828,None,621.7094268798828,None,-1,-1,1,True,448.3146667480469,1555.4819107055664,right,625.6125857830048,None,pp_3,icub,clamp,2021_Dec_21_1036,exp,2021.2.3,60.00846982339274,
left,go,1,0,1,0,2,1,13,0,626.14568400383,None,1,0.5832560062408447,626.14568400383,None,626.8143329620361,None,627.8249769210815,628.1817469596863,627.8249769210815,628.1817469596863,626.8143329620361,None,626.8143329620361,None,626.8143329620361,None,-1,-1,1,True,435.31250953674316,2000.4053115844727,left,631.1450159549713,None,pp_3,icub,clamp,2021_Dec_21_1036,exp,2021.2.3,60.00846982339274,
right,go,1,0,1,0,2,2,14,4,631.6803789138794,None,1,0.5012261867523193,631.6803789138794,None,632.2877388000488,None,633.2864229679108,633.6419858932495,633.2864229679108,633.6419858932495,632.2877388000488,None,632.2877388000488,None,632.2877388000488,None,-1,-1,1,True,302.1848201751709,1827.9414176940918,right,636.3045527935028,None,pp_3,icub,clamp,2021_Dec_21_1036,exp,2021.2.3,60.00846982339274,
left,stop,1,0,1,0,2,3,15,2,636.8204147815704,None,1,0.7913000583648682,636.8204147815704,None,637.7355690002441,None,638.7436809539795,639.0881857872009,638.7436809539795,639.0881857872009,637.7355690002441,None,637.7355690002441,None,637.7355690002441,None,850,950,1,True,408.2968235015869,-1.0,-1,643.0499680042267,None,pp_3,icub,clamp,2021_Dec_21_1036,exp,2021.2.3,60.00846982339274,
right,go,1,0,1,0,2,4,16,3,643.583034992218,None,1,1.40431809425354,643.583034992218,None,645.125422000885,None,646.1313829421997,646.456414937973,646.1313829421997,646.456414937973,645.125422000885,None,645.125422000885,None,645.125422000885,None,-1,-1,1,True,423.0380058288574,1051.3269901275635,right,648.499517917633,None,pp_3,icub,clamp,2021_Dec_21_1036,exp,2021.2.3,60.00846982339274,
right,go,1,0,1,0,2,5,17,4,649.0138008594513,None,1,0.9139769077301025,649.0138008594513,None,650.0512728691101,None,651.069629907608,651.4067850112915,651.069629907608,651.4067850112915,650.0512728691101,None,650.0512728691101,None,650.0512728691101,None,-1,-1,1,True,336.99989318847656,1598.3035564422607,right,653.8905549049377,None,pp_3,icub,clamp,2021_Dec_21_1036,exp,2021.2.3,60.00846982339274,
right,go,1,0,1,0,3,0,18,3,654.4246389865875,None,1,0.6341650485992432,654.4246389865875,None,655.1545798778534,None,656.1636588573456,656.5301477909088,656.1636588573456,656.5301477909088,655.1545798778534,None,655.1545798778534,None,655.1545798778534,None,-1,-1,1,True,326.5247344970703,1341.235876083374,right,658.7281868457794,None,pp_3,icub,clamp,2021_Dec_21_1036,exp,2021.2.3,60.00846982339274,
left,go,1,0,1,0,3,1,19,0,659.2491018772125,None,1,0.7744629383087158,659.2491018772125,None,660.104012966156,None,661.1211769580841,661.4485278129578,661.1211769580841,661.4485278129578,660.104012966156,None,660.104012966156,None,660.104012966156,None,-1,-1,1,True,294.76475715637207,1723.6578464508057,left,663.9979319572449,None,pp_3,icub,clamp,2021_Dec_21_1036,exp,2021.2.3,60.00846982339274,
left,go,1,0,1,0,3,2,20,1,664.4994688034058,None,1,0.6219420433044434,664.4994688034058,None,665.2275078296661,None,666.2486329078674,666.5927958488464,666.2486329078674,666.5927958488464,665.2275078296661,None,665.2275078296661,None,665.2275078296661,None,-1,-1,1,True,411.9303226470947,1496.6671466827393,left,669.0227890014648,None,pp_3,icub,clamp,2021_Dec_21_1036,exp,2021.2.3,60.00846982339274,
right,go,1,0,1,0,3,3,21,3,669.5335478782654,None,1,0.6482858657836914,669.5335478782654,None,670.2622888088226,None,671.2919387817383,671.6553039550781,671.2919387817383,671.6553039550781,670.2622888088226,None,670.2622888088226,None,670.2622888088226,None,-1,-1,1,True,400.16674995422363,1352.1945476531982,right,673.8899259567261,None,pp_3,icub,clamp,2021_Dec_21_1036,exp,2021.2.3,60.00846982339274,
left,go,1,0,1,0,3,4,22,0,674.4072778224945,None,1,0.5813591480255127,674.4072778224945,None,675.0741589069366,None,676.1059639453888,676.4614129066467,676.1059639453888,676.4614129066467,675.0741589069366,None,675.0741589069366,None,675.0741589069366,None,-1,-1,1,True,517.8952217102051,1280.1530361175537,left,678.7752039432526,None,pp_3,icub,clamp,2021_Dec_21_1036,exp,2021.2.3,60.00846982339274,
right,go,1,0,1,0,3,5,23,4,679.3009629249573,None,1,0.6168160438537598,679.3009629249573,None,680.0319669246674,None,681.0459759235382,681.4070208072662,681.0459759235382,681.4070208072662,680.0319669246674,None,680.0319669246674,None,680.0319669246674,None,-1,-1,1,True,208.31584930419922,1064.5453929901123,right,683.2108359336853,None,pp_3,icub,clamp,2021_Dec_21_1036,exp,2021.2.3,60.00846982339274,
left,go,1,0,1,0,4,0,24,1,683.7393720149994,None,1,0.6922359466552734,683.7393720149994,None,684.5317049026489,None,685.5362379550934,685.8906908035278,685.5362379550934,685.8906908035278,684.5317049026489,None,684.5317049026489,None,684.5317049026489,None,-1,-1,1,True,283.3130359649658,997.0250129699707,left,687.6833407878876,None,pp_3,icub,clamp,2021_Dec_21_1036,exp,2021.2.3,60.00846982339274,
right,go,1,0,1,0,4,1,25,4,688.2054319381714,None,1,0.6719741821289062,688.2054319381714,None,688.9935948848724,None,690.0076138973236,690.3698608875275,690.0076138973236,690.3698608875275,688.9935948848724,None,688.9935948848724,None,688.9935948848724,None,-1,-1,1,True,278.3215045928955,1743.0915832519531,right,692.9001319408417,None,pp_3,icub,clamp,2021_Dec_21_1036,exp,2021.2.3,60.00846982339274,
right,stop,1,0,1,0,4,2,26,5,693.433954000473,None,1,0.4058690071105957,693.433954000473,None,693.9156038761139,None,694.9402918815613,695.2919888496399,694.9402918815613,695.2919888496399,693.9156038761139,None,693.9156038761139,None,693.9156038761139,None,900,950,1,True,255.2950382232666,-1.0,-1,699.0773169994354,None,pp_3,icub,clamp,2021_Dec_21_1036,exp,2021.2.3,60.00846982339274,
left,stop,1,0,1,0,4,3,27,2,699.6095697879791,None,1,0.35649895668029785,699.6095697879791,None,700.0989549160004,None,701.0809009075165,701.4417989253998,701.0809009075165,701.4417989253998,700.0989549160004,None,700.0989549160004,None,700.0989549160004,None,900,1000,1,True,555.8366775512695,-1.0,-1,705.524472951889,None,pp_3,icub,clamp,2021_Dec_21_1036,exp,2021.2.3,60.00846982339274,
right,go,1,0,1,0,4,4,28,3,706.057895898819,None,1,0.6292109489440918,706.057895898819,None,706.7950918674469,None,707.8006958961487,708.1209449768066,707.8006958961487,708.1209449768066,706.7950918674469,None,706.7950918674469,None,706.7950918674469,None,-1,-1,1,True,470.5042839050293,1627.7399063110352,right,710.7600779533386,None,pp_3,icub,clamp,2021_Dec_21_1036,exp,2021.2.3,60.00846982339274,
left,go,1,0,1,0,4,5,29,0,711.2668998241425,None,1,0.4807469844818115,711.2668998241425,None,711.8704369068146,None,712.8889698982239,713.2398729324341,712.8889698982239,713.2398729324341,711.8704369068146,None,711.8704369068146,None,711.8704369068146,None,-1,-1,1,True,454.1928768157959,1495.6822395324707,left,715.7087049484253,None,pp_3,icub,clamp,2021_Dec_21_1036,exp,2021.2.3,60.00846982339274,
left,stop,1,0,1,0,5,0,30,2,716.2405598163605,None,1,0.650825023651123,716.2405598163605,None,716.9718329906464,None,717.9805748462677,718.3150939941406,717.9805748462677,718.3150939941406,716.9718329906464,None,716.9718329906464,None,716.9718329906464,None,950,1000,1,True,425.4627227783203,-1.0,-1,722.2654449939728,None,pp_3,icub,clamp,2021_Dec_21_1036,exp,2021.2.3,60.00846982339274,
left,go,1,0,1,0,5,1,31,1,722.7978367805481,None,1,0.5861260890960693,722.7978367805481,None,723.4726359844208,None,724.4559648036957,724.807345867157,724.4559648036957,724.807345867157,723.4726359844208,None,723.4726359844208,None,723.4726359844208,None,-1,-1,1,True,394.1936492919922,1594.6319103240967,left,727.3272528648376,None,pp_3,icub,clamp,2021_Dec_21_1036,exp,2021.2.3,60.00846982339274,
right,stop,1,0,1,0,5,2,32,5,727.8448469638824,None,1,0.6447210311889648,727.8448469638824,None,728.5702757835388,None,729.5634717941284,729.9250359535217,729.5634717941284,729.9250359535217,728.5702757835388,None,728.5702757835388,None,728.5702757835388,None,1000,1000,1,True,471.07434272766113,-1.0,-1,733.9125778675079,None,pp_3,icub,clamp,2021_Dec_21_1036,exp,2021.2.3,60.00846982339274,
left,stop,1,0,1,0,5,3,33,2,734.4448199272156,None,1,0.21815085411071777,734.4448199272156,None,734.7490229606628,None,735.72762799263,736.090961933136,735.72762799263,736.090961933136,734.7490229606628,None,734.7490229606628,None,734.7490229606628,None,1000,1050,1,True,367.2370910644531,-1.0,-1,740.0116817951202,None,pp_3,icub,clamp,2021_Dec_21_1036,exp,2021.2.3,60.00846982339274,
right,go,1,0,1,0,5,4,34,3,740.5453929901123,None,1,0.4775371551513672,740.5453929901123,None,741.1574687957764,None,742.1692588329315,742.508927822113,742.1692588329315,742.508927822113,741.1574687957764,None,741.1574687957764,None,741.1574687957764,None,,,0,False,-1.0,-1.0,-1,742.9064087867737,None,pp_3,icub,clamp,2021_Dec_21_1036,exp,2021.2.3,60.00846982339274,
right,stop,1,0,1,0,5,5,35,5,743.4004709720612,None,1,0.7444100379943848,743.4004709720612,None,744.2596919536591,None,745.2443549633026,745.5923438072205,745.2443549633026,745.5923438072205,744.2596919536591,None,744.2596919536591,None,744.2596919536591,None,1050,1050,1,True,552.1135330200195,-1.0,-1,749.7044389247894,None,pp_3,icub,clamp,2021_Dec_21_1036,exp,2021.2.3,60.00846982339274,
left,stop,1,0,1,0,6,0,36,2,750.197968006134,None,1,0.5129749774932861,750.197968006134,None,750.8124768733978,None,751.8176198005676,752.1693918704987,751.8176198005676,752.1693918704987,750.8124768733978,None,750.8124768733978,None,750.8124768733978,None,1050,1100,1,True,574.3076801300049,-1.0,-1,756.2762689590454,None,pp_3,icub,clamp,2021_Dec_21_1036,exp,2021.2.3,60.00846982339274,
left,go,1,0,1,0,6,1,37,1,756.8084938526154,None,1,0.5003788471221924,756.8084938526154,None,757.4207949638367,None,758.4049599170685,758.7454869747162,758.4049599170685,758.7454869747162,757.4207949638367,None,757.4207949638367,None,757.4207949638367,None,-1,-1,1,True,506.78133964538574,1804.8739433288574,left,761.630676984787,None,pp_3,icub,clamp,2021_Dec_21_1036,exp,2021.2.3,60.00846982339274,
left,go,1,0,1,0,6,2,38,0,762.1496198177338,None,1,0.6929159164428711,762.1496198177338,None,762.9437999725342,None,763.9627289772034,764.3298578262329,763.9627289772034,764.3298578262329,762.9437999725342,None,762.9437999725342,None,762.9437999725342,None,-1,-1,1,True,324.30553436279297,1701.45583152771,left,766.8656778335571,None,pp_3,icub,clamp,2021_Dec_21_1036,exp,2021.2.3,60.00846982339274,
left,stop,1,0,1,0,6,3,39,2,767.3658809661865,None,1,0.5004251003265381,767.3658809661865,None,767.9732139110565,None,768.9702169895172,769.3204889297485,768.9702169895172,769.3204889297485,767.9732139110565,None,767.9732139110565,None,767.9732139110565,None,1100,1100,1,True,333.38332176208496,-1.0,-1,773.1976118087769,None,pp_3,icub,clamp,2021_Dec_21_1036,exp,2021.2.3,60.00846982339274,
right,go,1,0,1,0,6,4,40,4,773.7298018932343,None,1,0.8480498790740967,773.7298018932343,None,774.7131519317627,None,775.695720911026,776.0501909255981,775.695720911026,776.0501909255981,774.7131519317627,None,774.7131519317627,None,774.7131519317627,None,-1,-1,1,True,504.810094833374,1809.0288639068604,right,778.8967638015747,None,pp_3,icub,clamp,2021_Dec_21_1036,exp,2021.2.3,60.00846982339274,
right,go,1,0,1,0,6,5,41,3,779.4134209156036,None,1,0.6435039043426514,779.4134209156036,None,780.1599199771881,None,781.1650629043579,781.5084788799286,781.1650629043579,781.5084788799286,780.1599199771881,None,780.1599199771881,None,780.1599199771881,None,-1,-1,1,True,254.364013671875,2233.661651611328,right,784.521880865097,None,pp_3,icub,clamp,2021_Dec_21_1036,exp,2021.2.3,60.00846982339274,
right,go,1,0,1,0,7,0,42,3,785.0310778617859,None,1,0.4922149181365967,785.0310778617859,None,785.6333909034729,None,786.6514518260956,786.9786729812622,786.6514518260956,786.9786729812622,785.6333909034729,None,785.6333909034729,None,785.6333909034729,None,-1,-1,1,True,373.6279010772705,1603.1582355499268,right,789.5011658668518,None,pp_3,icub,clamp,2021_Dec_21_1036,exp,2021.2.3,60.00846982339274,
right,go,1,0,1,0,7,1,43,4,790.0010089874268,None,1,0.7281959056854248,790.0010089874268,None,790.8531649112701,None,791.8467009067535,792.1942889690399,791.8467009067535,792.1942889690399,790.8531649112701,None,790.8531649112701,None,790.8531649112701,None,-1,-1,1,True,541.9151782989502,1680.6776523590088,right,794.951337814331,None,pp_3,icub,clamp,2021_Dec_21_1036,exp,2021.2.3,60.00846982339274,
left,go,1,0,1,0,7,2,44,1,795.4666140079498,None,1,0.680419921875,795.4666140079498,None,796.2577438354492,None,797.2721869945526,797.6407628059387,797.2721869945526,797.6407628059387,796.2577438354492,None,796.2577438354492,None,796.2577438354492,None,-1,-1,1,True,329.2355537414551,1683.6390495300293,left,800.1446049213409,None,pp_3,icub,clamp,2021_Dec_21_1036,exp,2021.2.3,60.00846982339274,
right,go,1,0,1,0,7,3,45,4,800.6660180091858,None,1,0.8009519577026367,800.6660180091858,None,801.5821568965912,None,802.594605922699,802.9454619884491,802.594605922699,802.9454619884491,801.5821568965912,None,801.5821568965912,None,801.5821568965912,None,-1,-1,1,True,347.9442596435547,2025.4008769989014,right,805.8506548404694,None,pp_3,icub,clamp,2021_Dec_21_1036,exp,2021.2.3,60.00846982339274,
left,go,1,0,1,0,7,4,46,1,806.3552689552307,None,1,0.7868139743804932,806.3552689552307,None,807.2656879425049,None,808.2961378097534,808.6507909297943,808.2961378097534,808.6507909297943,807.2656879425049,None,807.2656879425049,None,807.2656879425049,None,-1,-1,1,True,233.81733894348145,1964.8456573486328,left,811.3593819141388,None,pp_3,icub,clamp,2021_Dec_21_1036,exp,2021.2.3,60.00846982339274,
right,stop,1,0,1,0,7,5,47,5,811.8837749958038,None,1,0.5335309505462646,811.8837749958038,None,812.5456318855286,None,813.5799329280853,813.9282050132751,813.5799329280853,813.9282050132751,812.5456318855286,None,812.5456318855286,None,812.5456318855286,None,1150,1100,1,True,642.449140548706,-1.0,-1,818.0626459121704,None,pp_3,icub,clamp,2021_Dec_21_1036,exp,2021.2.3,60.00846982339274,
right,go,1,0,1,0,8,0,48,4,818.5951678752899,None,1,0.8074300289154053,818.5951678752899,None,819.5161349773407,None,820.501837015152,820.8387489318848,820.501837015152,820.8387489318848,819.5161349773407,None,819.5161349773407,None,819.5161349773407,None,-1,-1,1,True,520.9991931915283,990.5979633331299,right,822.918595790863,None,pp_3,icub,clamp,2021_Dec_21_1036,exp,2021.2.3,60.00846982339274,
right,go,1,0,1,0,8,1,49,4,823.4191658496857,None,1,0.6322851181030273,823.4191658496857,None,824.1518650054932,None,825.1767308712006,825.5240099430084,825.1767308712006,825.5240099430084,824.1518650054932,None,824.1518650054932,None,824.1518650054932,None,-1,-1,1,True,1082.7250480651855,1346.9858169555664,right,828.4694290161133,None,pp_3,icub,clamp,2021_Dec_21_1036,exp,2021.2.3,60.00846982339274,
left,go,1,0,1,0,8,2,50,0,828.9842088222504,None,1,0.47385692596435547,828.9842088222504,None,829.5865938663483,None,830.6030099391937,830.929694890976,830.6030099391937,830.929694890976,829.5865938663483,None,829.5865938663483,None,829.5865938663483,None,-1,-1,1,True,399.72662925720215,1658.522129058838,left,833.5224959850311,None,pp_3,icub,clamp,2021_Dec_21_1036,exp,2021.2.3,60.00846982339274,
right,go,1,0,1,0,8,3,51,4,834.041158914566,None,1,0.5908210277557373,834.041158914566,None,834.7592949867249,None,835.7946050167084,836.1416218280792,835.7946050167084,836.1416218280792,834.7592949867249,None,834.7592949867249,None,834.7592949867249,None,-1,-1,1,True,495.12338638305664,1697.3869800567627,right,838.8617157936096,None,pp_3,icub,clamp,2021_Dec_21_1036,exp,2021.2.3,60.00846982339274,
right,stop,1,0,1,0,8,4,52,5,839.393355846405,None,1,0.479611873626709,839.393355846405,None,839.9967069625854,None,841.0310289859772,841.3802177906036,841.0310289859772,841.3802177906036,839.9967069625854,None,839.9967069625854,None,839.9967069625854,None,1150,1150,0,True,398.1502056121826,920.0439453125,right,843.2268569469452,None,pp_3,icub,clamp,2021_Dec_21_1036,exp,2021.2.3,60.00846982339274,
right,go,1,0,1,0,8,5,53,3,843.7440278530121,None,1,1.8249478340148926,843.7440278530121,None,845.6495997905731,None,846.649062871933,847.0134878158569,846.649062871933,847.0134878158569,845.6495997905731,None,845.6495997905731,None,845.6495997905731,None,-1,-1,1,True,566.2426948547363,1387.0396614074707,right,849.5044379234314,None,pp_3,icub,clamp,2021_Dec_21_1036,exp,2021.2.3,60.00846982339274,
left,stop,1,0,1,0,9,0,54,2,850.0152788162231,None,1,0.6106340885162354,850.0152788162231,None,850.7446618080139,None,851.7518529891968,852.1096658706665,851.7518529891968,852.1096658706665,850.7446618080139,None,850.7446618080139,None,850.7446618080139,None,1150,1100,1,True,471.0230827331543,-1.0,-1,856.107085943222,None,pp_3,icub,clamp,2021_Dec_21_1036,exp,2021.2.3,60.00846982339274,
left,go,1,0,1,0,9,1,55,1,856.6398298740387,None,1,0.3526780605316162,856.6398298740387,None,857.1290678977966,None,858.1334278583527,858.488431930542,858.1334278583527,858.488431930542,857.1290678977966,None,857.1290678977966,None,857.1290678977966,None,-1,-1,1,True,426.0070323944092,1573.0631351470947,left,861.0246918201447,None,pp_3,icub,clamp,2021_Dec_21_1036,exp,2021.2.3,60.00846982339274,
right,go,1,0,1,0,9,2,56,3,861.5404939651489,None,1,0.5303211212158203,861.5404939651489,None,862.1464729309082,None,863.1530258655548,863.4983999729156,863.1530258655548,863.4983999729156,862.1464729309082,None,862.1464729309082,None,862.1464729309082,None,-1,-1,1,True,297.55592346191406,1508.1241130828857,right,865.8278238773346,None,pp_3,icub,clamp,2021_Dec_21_1036,exp,2021.2.3,60.00846982339274,
left,go,1,0,1,0,9,3,57,1,866.3462378978729,None,1,0.6006009578704834,866.3462378978729,None,867.0713558197021,None,868.070583820343,868.4325158596039,868.070583820343,868.4325158596039,867.0713558197021,None,867.0713558197021,None,867.0713558197021,None,-1,-1,1,True,493.3509826660156,1571.0859298706055,left,871.0109980106354,None,pp_3,icub,clamp,2021_Dec_21_1036,exp,2021.2.3,60.00846982339274,
left,stop,1,0,1,0,9,4,58,2,871.54021692276,None,1,0.5125439167022705,871.54021692276,None,872.143171787262,None,873.1372048854828,873.4936048984528,873.1372048854828,873.4936048984528,872.143171787262,None,872.143171787262,None,872.143171787262,None,1200,1100,0,True,538.2423400878906,1296.7338562011719,left,875.8585469722748,None,pp_3,icub,clamp,2021_Dec_21_1036,exp,2021.2.3,60.00846982339274,
left,stop,1,0,1,0,9,5,59,2,876.3657448291779,None,1,0.9810609817504883,876.3657448291779,None,877.4646229743958,None,878.4907448291779,878.8208649158478,878.4907448291779,878.8208649158478,877.4646229743958,None,877.4646229743958,None,877.4646229743958,None,1150,1100,1,True,438.21048736572266,-1.0,-1,882.7973358631134,None,pp_3,icub,clamp,2021_Dec_21_1036,exp,2021.2.3,60.00846982339274,
right,go,1,0,1,0,10,0,60,4,883.2944428920746,None,1,0.5359690189361572,883.2944428920746,None,883.9702517986298,None,884.9747779369354,885.3299248218536,884.9747779369354,885.3299248218536,883.9702517986298,None,883.9702517986298,None,883.9702517986298,None,-1,-1,1,True,376.33824348449707,1617.483139038086,right,887.850175857544,None,pp_3,icub,clamp,2021_Dec_21_1036,exp,2021.2.3,60.00846982339274,
left,go,1,0,1,0,10,1,61,1,888.3847630023956,None,1,0.8311331272125244,888.3847630023956,None,889.3012149333954,None,890.3333749771118,890.6890308856964,890.3333749771118,890.6890308856964,889.3012149333954,None,889.3012149333954,None,889.3012149333954,None,-1,-1,1,True,668.5748100280762,1998.6467361450195,left,893.8425779342651,None,pp_3,icub,clamp,2021_Dec_21_1036,exp,2021.2.3,60.00846982339274,
left,go,1,0,1,0,10,2,62,0,894.3568878173828,None,1,0.6962709426879883,894.3568878173828,None,895.1478698253632,None,896.1418948173523,896.4995758533478,896.1418948173523,896.4995758533478,895.1478698253632,None,895.1478698253632,None,895.1478698253632,None,-1,-1,1,True,526.8676280975342,1848.466396331787,left,899.3983018398285,None,pp_3,icub,clamp,2021_Dec_21_1036,exp,2021.2.3,60.00846982339274,
right,stop,1,0,1,0,10,3,63,5,899.9015898704529,None,1,0.8333098888397217,899.9015898704529,None,900.8205049037933,None,901.8501708507538,902.1946699619293,901.8501708507538,902.1946699619293,900.8205049037933,None,900.8205049037933,None,900.8205049037933,None,1200,1100,1,True,437.79540061950684,-1.0,-1,906.1631679534912,None,pp_3,icub,clamp,2021_Dec_21_1036,exp,2021.2.3,60.00846982339274,
left,stop,1,0,1,0,10,4,64,2,906.6973819732666,None,1,0.49088215827941895,906.6973819732666,None,907.3104348182678,None,908.2870318889618,908.6426558494568,908.2870318889618,908.6426558494568,907.3104348182678,None,907.3104348182678,None,907.3104348182678,None,1200,1150,1,True,676.7346858978271,-1.0,-1,912.8541510105133,None,pp_3,icub,clamp,2021_Dec_21_1036,exp,2021.2.3,60.00846982339274,
right,stop,1,0,1,0,10,5,65,5,913.3875589370728,None,1,0.37875819206237793,913.3875589370728,None,913.877189874649,None,914.867791891098,915.1949148178101,914.867791891098,915.1949148178101,913.877189874649,None,913.877189874649,None,913.877189874649,None,1250,1150,1,True,585.5369567871094,-1.0,-1,919.3475878238678,None,pp_3,icub,clamp,2021_Dec_21_1036,exp,2021.2.3,60.00846982339274,
left,go,1,0,1,0,11,0,66,1,919.8800148963928,None,1,0.33829307556152344,919.8800148963928,None,920.3071060180664,None,921.2797939777374,921.6236839294434,921.2797939777374,921.6236839294434,920.3071060180664,None,920.3071060180664,None,920.3071060180664,None,-1,-1,1,True,333.4770202636719,1919.534683227539,left,924.4524250030518,None,pp_3,icub,clamp,2021_Dec_21_1036,exp,2021.2.3,60.00846982339274,
left,go,1,0,1,0,11,1,67,0,924.9564487934113,None,1,0.5825939178466797,924.9564487934113,None,925.6244809627533,None,926.6250228881836,926.9704608917236,926.6250228881836,926.9704608917236,925.6244809627533,None,925.6244809627533,None,925.6244809627533,None,-1,-1,1,True,461.7269039154053,1964.8988246917725,left,929.9252879619598,None,pp_3,icub,clamp,2021_Dec_21_1036,exp,2021.2.3,60.00846982339274,
left,go,1,0,1,0,11,2,68,0,930.4286727905273,None,1,0.6929891109466553,930.4286727905273,None,931.2071340084076,None,932.2205829620361,932.565997838974,932.2205829620361,932.565997838974,931.2071340084076,None,931.2071340084076,None,931.2071340084076,None,-1,-1,1,True,547.7421283721924,1817.1653747558594,left,935.4634029865265,None,pp_3,icub,clamp,2021_Dec_21_1036,exp,2021.2.3,60.00846982339274,
right,go,1,0,1,0,11,3,69,3,935.9649407863617,None,1,0.815654993057251,935.9649407863617,None,936.8813338279724,None,937.903520822525,938.2620739936829,937.903520822525,938.2620739936829,936.8813338279724,None,936.8813338279724,None,936.8813338279724,None,-1,-1,1,True,475.53563117980957,1369.020700454712,right,940.5994648933411,None,pp_3,icub,clamp,2021_Dec_21_1036,exp,2021.2.3,60.00846982339274,
right,stop,1,0,1,0,11,4,70,5,941.1255869865417,None,1,0.7979791164398193,941.1255869865417,None,942.039333820343,None,943.0520420074463,943.397763967514,943.0520420074463,943.397763967514,942.039333820343,None,942.039333820343,None,942.039333820343,None,1250,1200,1,True,638.2708549499512,-1.0,-1,947.5677978992462,None,pp_3,icub,clamp,2021_Dec_21_1036,exp,2021.2.3,60.00846982339274,
right,stop,1,0,1,0,11,5,71,5,948.1007859706879,None,1,0.706367015838623,948.1007859706879,None,948.8991708755493,None,949.8681190013885,950.2223629951477,949.8681190013885,950.2223629951477,948.8991708755493,None,948.8991708755493,None,948.8991708755493,None,1250,1250,1,True,460.8335494995117,-1.0,-1,954.2442479133606,None,pp_3,icub,clamp,2021_Dec_21_1036,exp,2021.2.3,60.00846982339274,
left,go,1,0,1,0,12,0,72,0,954.7781329154968,None,1,0.5980379581451416,954.7781329154968,None,955.5170419216156,None,956.5024299621582,956.841413974762,956.5024299621582,956.841413974762,955.5170419216156,None,955.5170419216156,None,955.5170419216156,None,-1,-1,1,True,291.2566661834717,1264.374017715454,left,958.9732530117035,None,pp_3,icub,clamp,2021_Dec_21_1036,exp,2021.2.3,60.00846982339274,
left,stop,1,0,1,0,12,1,73,2,959.4777870178223,None,1,0.9502730369567871,959.4777870178223,None,960.5119669437408,None,961.5031139850616,961.8573288917542,961.5031139850616,961.8573288917542,960.5119669437408,None,960.5119669437408,None,960.5119669437408,None,1250,1300,1,True,348.71578216552734,-1.0,-1,965.7723388671875,None,pp_3,icub,clamp,2021_Dec_21_1036,exp,2021.2.3,60.00846982339274,
left,go,1,0,1,0,12,2,74,0,966.3045477867126,None,1,0.4516589641571045,966.3045477867126,None,966.8560400009155,None,967.8269128799438,968.1693317890167,967.8269128799438,968.1693317890167,966.8560400009155,None,966.8560400009155,None,966.8560400009155,None,-1,-1,1,True,91.45331382751465,1819.7832107543945,left,970.6488838195801,None,pp_3,icub,clamp,2021_Dec_21_1036,exp,2021.2.3,60.00846982339274,
right,stop,1,0,1,0,12,3,75,5,971.1628968715668,None,1,0.6623969078063965,971.1628968715668,None,971.9496428966522,None,972.944906949997,973.3002939224243,972.944906949997,973.3002939224243,971.9496428966522,None,971.9496428966522,None,971.9496428966522,None,1300,1300,1,True,317.54469871520996,-1.0,-1,977.1501338481903,None,pp_3,icub,clamp,2021_Dec_21_1036,exp,2021.2.3,60.00846982339274,
left,go,1,0,1,0,12,4,76,0,977.6842617988586,None,1,0.8839490413665771,977.6842617988586,None,978.6682407855988,None,979.6726698875427,980.0237188339233,979.6726698875427,980.0237188339233,978.6682407855988,None,978.6682407855988,None,978.6682407855988,None,-1,-1,1,True,300.8401393890381,1806.5545558929443,left,982.6631379127502,None,pp_3,icub,clamp,2021_Dec_21_1036,exp,2021.2.3,60.00846982339274,
left,go,1,0,1,0,12,5,77,1,983.1718609333038,None,1,0.5974798202514648,983.1718609333038,None,983.8969178199768,None,984.9115228652954,985.236802816391,984.9115228652954,985.236802816391,983.8969178199768,None,983.8969178199768,None,983.8969178199768,None,-1,-1,1,True,499.758243560791,1812.9255771636963,left,988.0840649604797,None,pp_3,icub,clamp,2021_Dec_21_1036,exp,2021.2.3,60.00846982339274,
right,stop,2,0,2,0,0,0,0,5,998.5802040100098,None,1,5.814365863800049,998.5802040100098,None,1004.5012719631195,None,1005.5134098529816,1005.8583128452301,1005.5134098529816,1005.8583128452301,1004.5012719631195,None,1004.5012719631195,None,1004.5012719631195,None,1300,1350,1,True,476.2735366821289,-1.0,-1,1009.8637199401855,None,pp_3,icub,clamp,2021_Dec_21_1036,exp,2021.2.3,60.00846982339274,
left,go,2,0,2,0,0,1,1,0,1010.3972508907318,None,1,0.5297970771789551,1010.3972508907318,None,1011.0101017951965,None,1011.9953429698944,1012.3521068096161,1011.9953429698944,1012.3521068096161,1011.0101017951965,None,1011.0101017951965,None,1011.0101017951965,None,-1,-1,0,False,467.0672416687012,-1.0,-1,1016.3617248535156,None,pp_3,icub,clamp,2021_Dec_21_1036,exp,2021.2.3,60.00846982339274,
left,go,2,0,2,0,0,2,2,1,1016.8830189704895,None,1,1.4142630100250244,1016.8830189704895,None,1018.4168059825897,None,1019.4289169311523,1019.7749719619751,1019.4289169311523,1019.7749719619751,1018.4168059825897,None,1018.4168059825897,None,1018.4168059825897,None,-1,-1,1,True,428.2877445220947,1447.559118270874,left,1022.183867931366,None,pp_3,icub,clamp,2021_Dec_21_1036,exp,2021.2.3,60.00846982339274,
left,stop,2,0,2,0,0,3,3,2,1022.7143728733063,None,1,0.8219878673553467,1022.7143728733063,None,1023.6269400119781,None,1024.6401069164276,1024.9992289543152,1024.6401069164276,1024.9992289543152,1023.6269400119781,None,1023.6269400119781,None,1023.6269400119781,None,1300,1400,1,True,367.94137954711914,-1.0,-1,1028.8736197948456,None,pp_3,icub,clamp,2021_Dec_21_1036,exp,2021.2.3,60.00846982339274,
left,go,2,0,2,0,0,4,4,1,1029.406543970108,None,1,0.6323270797729492,1029.406543970108,None,1030.1423859596252,None,1031.1228318214417,1031.4749608039856,1031.1228318214417,1031.4749608039856,1030.1423859596252,None,1030.1423859596252,None,1030.1423859596252,None,-1,-1,1,True,330.57498931884766,2436.7213249206543,left,1034.8049128055573,None,pp_3,icub,clamp,2021_Dec_21_1036,exp,2021.2.3,60.00846982339274,
left,stop,2,0,2,0,0,5,5,2,1035.3156518936157,None,1,0.9105768203735352,1035.3156518936157,None,1036.3503918647766,None,1037.3637568950653,1037.7200088500977,1037.3637568950653,1037.7200088500977,1036.3503918647766,None,1036.3503918647766,None,1036.3503918647766,None,1350,1400,1,True,384.4602108001709,-1.0,-1,1041.638356924057,None,pp_3,icub,clamp,2021_Dec_21_1036,exp,2021.2.3,60.00846982339274,
left,go,2,0,2,0,1,0,6,0,1042.1719379425049,None,1,0.7198951244354248,1042.1719379425049,None,1042.97145986557,None,1043.955578804016,1044.3037278652191,1043.955578804016,1044.3037278652191,1042.97145986557,None,1042.97145986557,None,1042.97145986557,None,-1,-1,1,True,430.2253723144531,2092.3402309417725,left,1047.395686864853,None,pp_3,icub,clamp,2021_Dec_21_1036,exp,2021.2.3,60.00846982339274,
right,go,2,0,2,0,1,1,7,3,1047.9129729270935,None,1,0.8803892135620117,1047.9129729270935,None,1048.8888568878174,None,1049.900866985321,1050.2259058952332,1049.900866985321,1050.2259058952332,1048.8888568878174,None,1048.8888568878174,None,1048.8888568878174,None,-1,-1,1,True,759.0508460998535,1830.1894664764404,right,1053.377501964569,None,pp_3,icub,clamp,2021_Dec_21_1036,exp,2021.2.3,60.00846982339274,
right,stop,2,0,2,0,1,2,8,5,1053.8819630146027,None,1,0.9304440021514893,1053.8819630146027,None,1054.9190139770508,None,1055.948282957077,1056.3023018836975,1055.948282957077,1056.3023018836975,1054.9190139770508,None,1054.9190139770508,None,1054.9190139770508,None,1400,1400,1,True,596.6427326202393,-1.0,-1,1060.4283599853516,None,pp_3,icub,clamp,2021_Dec_21_1036,exp,2021.2.3,60.00846982339274,
left,go,2,0,2,0,1,3,9,1,1060.9612119197845,None,1,0.8665931224822998,1060.9612119197845,None,1061.9454917907715,None,1062.9329569339752,1063.294362783432,1062.9329569339752,1063.294362783432,1061.9454917907715,None,1061.9454917907715,None,1061.9454917907715,None,-1,-1,1,True,417.1910285949707,2007.117748260498,left,1066.2527859210968,None,pp_3,icub,clamp,2021_Dec_21_1036,exp,2021.2.3,60.00846982339274,
left,stop,2,0,2,0,1,4,10,2,1066.7573819160461,None,1,1.2977080345153809,1066.7573819160461,None,1068.1646189689636,None,1069.1839158535004,1069.5413060188293,1069.1839158535004,1069.5413060188293,1068.1646189689636,None,1068.1646189689636,None,1068.1646189689636,None,1400,1450,1,True,523.33664894104,-1.0,-1,1073.592943906784,None,pp_3,icub,clamp,2021_Dec_21_1036,exp,2021.2.3,60.00846982339274,
left,stop,2,0,2,0,1,5,11,2,1074.126089811325,None,1,0.46765899658203125,1074.126089811325,None,1074.677384853363,None,1075.6573359966278,1076.0050158500671,1075.6573359966278,1076.0050158500671,1074.677384853363,None,1074.677384853363,None,1074.677384853363,None,1450,1450,1,True,356.16016387939453,-1.0,-1,1079.9262878894806,None,pp_3,icub,clamp,2021_Dec_21_1036,exp,2021.2.3,60.00846982339274,
left,stop,2,0,2,0,2,0,12,2,1080.4593408107758,None,1,0.30731797218322754,1080.4593408107758,None,1080.8874728679657,None,1081.8715989589691,1082.2276628017426,1081.8715989589691,1082.2276628017426,1080.8874728679657,None,1080.8874728679657,None,1080.8874728679657,None,1500,1450,1,True,605.703592300415,-1.0,-1,1086.3696730136871,None,pp_3,icub,clamp,2021_Dec_21_1036,exp,2021.2.3,60.00846982339274,
right,go,2,0,2,0,2,1,13,4,1086.901445865631,None,1,0.34516286849975586,1086.901445865631,None,1087.3272218704224,None,1088.339819908142,1088.6937828063965,1088.339819908142,1088.6937828063965,1087.3272218704224,None,1087.3272218704224,None,1087.3272218704224,None,-1,-1,1,True,338.5157585144043,2236.8009090423584,right,1091.7968668937683,None,pp_3,icub,clamp,2021_Dec_21_1036,exp,2021.2.3,60.00846982339274,
right,go,2,0,2,0,2,2,14,3,1092.3204758167267,None,1,1.0595810413360596,1092.3204758167267,None,1093.4802420139313,None,1094.4883728027344,1094.8463039398193,1094.4883728027344,1094.8463039398193,1093.4802420139313,None,1093.4802420139313,None,1093.4802420139313,None,-1,-1,1,True,797.1997261047363,1533.1156253814697,right,1097.7083117961884,None,pp_3,icub,clamp,2021_Dec_21_1036,exp,2021.2.3,60.00846982339274,
right,go,2,0,2,0,2,3,15,3,1098.2271699905396,None,1,0.559863805770874,1098.2271699905396,None,1098.8936269283295,None,1099.9180648326874,1100.270891904831,1099.9180648326874,1100.270891904831,1098.8936269283295,None,1098.8936269283295,None,1098.8936269283295,None,-1,-1,1,True,657.2012901306152,1919.438362121582,right,1103.3799088001251,None,pp_3,icub,clamp,2021_Dec_21_1036,exp,2021.2.3,60.00846982339274,
right,stop,2,0,2,0,2,4,16,5,1103.887324810028,None,1,0.6338250637054443,1103.887324810028,None,1104.6166520118713,None,1105.6261868476868,1105.9822509288788,1105.6261868476868,1105.9822509288788,1104.6166520118713,None,1104.6166520118713,None,1104.6166520118713,None,1550,1450,0,True,832.7581882476807,1581.8324089050293,right,1108.9337368011475,None,pp_3,icub,clamp,2021_Dec_21_1036,exp,2021.2.3,60.00846982339274,
right,go,2,0,2,0,2,5,17,4,1109.4650449752808,None,1,0.9880259037017822,1109.4650449752808,None,1110.5631248950958,None,1111.5749928951263,1111.9405028820038,1111.5749928951263,1111.9405028820038,1110.5631248950958,None,1110.5631248950958,None,1110.5631248950958,None,-1,-1,1,True,533.6716175079346,2067.570924758911,right,1115.0731008052826,None,pp_3,icub,clamp,2021_Dec_21_1036,exp,2021.2.3,60.00846982339274,
left,go,2,0,2,0,3,0,18,1,1115.5755808353424,None,1,0.6544780731201172,1115.5755808353424,None,1116.3054838180542,None,1117.3350269794464,1117.6849029064178,1117.3350269794464,1117.6849029064178,1116.3054838180542,None,1116.3054838180542,None,1116.3054838180542,None,-1,-1,1,True,189.75019454956055,2438.8625621795654,left,1120.8437428474426,None,pp_3,icub,clamp,2021_Dec_21_1036,exp,2021.2.3,60.00846982339274,
left,stop,2,0,2,0,3,1,19,2,1121.3639969825745,None,1,0.8768389225006104,1121.3639969825745,None,1122.3416938781738,None,1123.340453863144,1123.6633338928223,1123.340453863144,1123.6633338928223,1122.3416938781738,None,1122.3416938781738,None,1122.3416938781738,None,1550,1400,1,True,360.3980541229248,-1.0,-1,1127.5963959693909,None,pp_3,icub,clamp,2021_Dec_21_1036,exp,2021.2.3,60.00846982339274,
left,stop,2,0,2,0,3,2,20,2,1128.1292388439178,None,1,0.4533669948577881,1128.1292388439178,None,1128.6820027828217,None,1129.6698999404907,1130.0130789279938,1129.6698999404907,1130.0130789279938,1128.6820027828217,None,1128.6820027828217,None,1128.6820027828217,None,1600,1400,1,True,192.86298751831055,-1.0,-1,1133.776496887207,None,pp_3,icub,clamp,2021_Dec_21_1036,exp,2021.2.3,60.00846982339274,
left,go,2,0,2,0,3,3,21,1,1134.3083958625793,None,1,0.37515878677368164,1134.3083958625793,None,1134.797786951065,None,1135.7861218452454,1136.151794910431,1135.7861218452454,1136.151794910431,1134.797786951065,None,1134.797786951065,None,1134.797786951065,None,-1,-1,1,True,249.14813041687012,2398.164987564087,left,1139.3342688083649,None,pp_3,icub,clamp,2021_Dec_21_1036,exp,2021.2.3,60.00846982339274,
left,go,2,0,2,0,3,4,22,1,1139.852511882782,None,1,0.7053980827331543,1139.852511882782,None,1140.6437458992004,None,1141.6730887889862,1142.0419418811798,1141.6730887889862,1142.0419418811798,1140.6437458992004,None,1140.6437458992004,None,1140.6437458992004,None,-1,-1,1,True,430.79328536987305,1857.7821254730225,left,1144.8197658061981,None,pp_3,icub,clamp,2021_Dec_21_1036,exp,2021.2.3,60.00846982339274,
right,go,2,0,2,0,3,5,23,3,1145.3364698886871,None,1,0.5935158729553223,1145.3364698886871,None,1146.054286956787,None,1147.06547498703,1147.417380809784,1147.06547498703,1147.417380809784,1146.054286956787,None,1146.054286956787,None,1146.054286956787,None,-1,-1,1,True,368.4508800506592,1739.4006252288818,right,1150.0484728813171,None,pp_3,icub,clamp,2021_Dec_21_1036,exp,2021.2.3,60.00846982339274,
left,go,2,0,2,0,4,0,24,0,1150.5542600154877,None,1,0.5481770038604736,1150.5542600154877,None,1151.2219498157501,None,1152.229591846466,1152.5853428840637,1152.229591846466,1152.5853428840637,1151.2219498157501,None,1151.2219498157501,None,1151.2219498157501,None,-1,-1,1,True,222.7935791015625,1900.3007411956787,left,1155.2244608402252,None,pp_3,icub,clamp,2021_Dec_21_1036,exp,2021.2.3,60.00846982339274,
left,go,2,0,2,0,4,1,25,1,1155.745440006256,None,1,0.9988110065460205,1155.745440006256,None,1156.8444728851318,None,1157.8448519706726,1158.204304933548,1157.8448519706726,1158.204304933548,1156.8444728851318,None,1156.8444728851318,None,1156.8444728851318,None,-1,-1,1,True,348.76036643981934,2331.2299251556396,left,1161.4038288593292,None,pp_3,icub,clamp,2021_Dec_21_1036,exp,2021.2.3,60.00846982339274,
right,go,2,0,2,0,4,2,26,4,1161.9205858707428,None,1,0.9392709732055664,1161.9205858707428,None,1162.9609098434448,None,1163.9715888500214,1164.3170218467712,1163.9715888500214,1164.3170218467712,1162.9609098434448,None,1162.9609098434448,None,1162.9609098434448,None,-1,-1,1,True,323.97961616516113,2016.4859294891357,right,1167.1863420009613,None,pp_3,icub,clamp,2021_Dec_21_1036,exp,2021.2.3,60.00846982339274,
right,go,2,0,2,0,4,3,27,4,1167.7087178230286,None,1,0.8026318550109863,1167.7087178230286,None,1168.6117990016937,None,1169.6360409259796,1169.987979888916,1169.6360409259796,1169.987979888916,1168.6117990016937,None,1168.6117990016937,None,1168.6117990016937,None,-1,-1,1,True,304.8100471496582,2177.9944896698,right,1172.9866738319397,None,pp_3,icub,clamp,2021_Dec_21_1036,exp,2021.2.3,60.00846982339274,
right,go,2,0,2,0,4,4,28,4,1173.500587940216,None,1,0.693248987197876,1173.500587940216,None,1174.2945749759674,None,1175.304391860962,1175.6608788967133,1175.304391860962,1175.6608788967133,1174.2945749759674,None,1174.2945749759674,None,1174.2945749759674,None,-1,-1,1,True,346.88711166381836,2026.5910625457764,right,1178.565311908722,None,pp_3,icub,clamp,2021_Dec_21_1036,exp,2021.2.3,60.00846982339274,
left,go,2,0,2,0,4,5,29,1,1179.0831508636475,None,1,0.842616081237793,1179.0831508636475,None,1180.0479578971863,None,1181.0732688903809,1181.4314048290253,1181.0732688903809,1181.4314048290253,1180.0479578971863,None,1180.0479578971863,None,1180.0479578971863,None,-1,-1,1,True,478.9905548095703,2565.7448768615723,left,1184.9651749134064,None,pp_3,icub,clamp,2021_Dec_21_1036,exp,2021.2.3,60.00846982339274,
right,go,2,0,2,0,5,0,30,4,1185.4694728851318,None,1,11.923444986343384,1185.4694728851318,None,1197.5257468223572,None,1198.5567870140076,1198.9021699428558,1198.5567870140076,1198.9021699428558,1197.5257468223572,None,1197.5257468223572,None,1197.5257468223572,None,-1,-1,1,True,311.3291263580322,2147.6197242736816,right,1201.883552789688,None,pp_3,icub,clamp,2021_Dec_21_1036,exp,2021.2.3,60.00846982339274,
right,go,2,0,2,0,5,1,31,3,1202.4011878967285,None,1,0.9523739814758301,1202.4011878967285,None,1203.439633846283,None,1204.4642570018768,1204.8162159919739,1204.4642570018768,1204.8162159919739,1203.439633846283,None,1203.439633846283,None,1203.439633846283,None,-1,-1,1,True,116.8367862701416,2485.751152038574,right,1207.95126080513,None,pp_3,icub,clamp,2021_Dec_21_1036,exp,2021.2.3,60.00846982339274,
right,go,2,0,2,0,5,2,32,3,1208.4683468341827,None,1,0.7634198665618896,1208.4683468341827,None,1209.3221459388733,None,1210.3325009346008,1210.6731519699097,1210.3325009346008,1210.6731519699097,1209.3221459388733,None,1209.3221459388733,None,1209.3221459388733,None,-1,-1,1,True,304.26692962646484,2363.931894302368,right,1213.868311882019,None,pp_3,icub,clamp,2021_Dec_21_1036,exp,2021.2.3,60.00846982339274,
right,go,2,0,2,0,5,3,33,4,1214.3826668262482,None,1,0.7921249866485596,1214.3826668262482,None,1215.2955119609833,None,1216.3194489479065,1216.6740069389343,1216.3194489479065,1216.6740069389343,1215.2955119609833,None,1215.2955119609833,None,1215.2955119609833,None,-1,-1,1,True,691.5249824523926,2132.0595741271973,right,1220.0289978981018,None,pp_3,icub,clamp,2021_Dec_21_1036,exp,2021.2.3,60.00846982339274,
right,go,2,0,2,0,5,4,34,4,1220.5584409236908,None,1,0.6813440322875977,1220.5584409236908,None,1221.347895860672,None,1222.3653008937836,1222.7159049510956,1222.3653008937836,1222.7159049510956,1221.347895860672,None,1221.347895860672,None,1221.347895860672,None,-1,-1,1,True,209.79881286621094,2172.562837600708,right,1225.6138479709625,None,pp_3,icub,clamp,2021_Dec_21_1036,exp,2021.2.3,60.00846982339274,
left,go,2,0,2,0,5,5,35,1,1226.1313519477844,None,1,0.7985861301422119,1226.1313519477844,None,1227.0462038516998,None,1228.0436408519745,1228.4033658504486,1228.0436408519745,1228.4033658504486,1227.0462038516998,None,1227.0462038516998,None,1227.0462038516998,None,-1,-1,1,True,467.8668975830078,2229.2189598083496,left,1231.6182270050049,None,pp_3,icub,clamp,2021_Dec_21_1036,exp,2021.2.3,60.00846982339274,
left,go,2,0,2,0,6,0,36,1,1232.1299798488617,None,1,0.8915500640869141,1232.1299798488617,None,1233.106863975525,None,1234.1308188438416,1234.481274843216,1234.1308188438416,1234.481274843216,1233.106863975525,None,1233.106863975525,None,1233.106863975525,None,-1,-1,1,True,114.37344551086426,2175.273656845093,left,1237.3010969161987,None,pp_3,icub,clamp,2021_Dec_21_1036,exp,2021.2.3,60.00846982339274,
right,go,2,0,2,0,6,1,37,4,1237.8036777973175,None,1,0.7109479904174805,1237.8036777973175,None,1238.595402956009,None,1239.6028759479523,1239.9676718711853,1239.6028759479523,1239.9676718711853,1238.595402956009,None,1238.595402956009,None,1238.595402956009,None,-1,-1,1,True,542.2756671905518,1707.5507640838623,right,1242.740098953247,None,pp_3,icub,clamp,2021_Dec_21_1036,exp,2021.2.3,60.00846982339274,
right,go,2,0,2,0,6,2,38,3,1243.265722990036,None,1,0.5296859741210938,1243.265722990036,None,1243.9289009571075,None,1244.9321918487549,1245.2916569709778,1244.9321918487549,1245.2916569709778,1243.9289009571075,None,1243.9289009571075,None,1243.9289009571075,None,-1,-1,1,True,545.2523231506348,1704.1010856628418,right,1248.0731549263,None,pp_3,icub,clamp,2021_Dec_21_1036,exp,2021.2.3,60.00846982339274,
right,stop,2,0,2,0,6,3,39,5,1248.5901958942413,None,1,0.40814900398254395,1248.5901958942413,None,1249.112314939499,None,1250.1436638832092,1250.49799990654,1250.1436638832092,1250.49799990654,1249.112314939499,None,1249.112314939499,None,1249.112314939499,None,1650,1400,1,True,334.4435691833496,-1.0,-1,1254.3171968460083,None,pp_3,icub,clamp,2021_Dec_21_1036,exp,2021.2.3,60.00846982339274,
left,go,2,0,2,0,6,4,40,0,1254.849949836731,None,1,0.48418307304382324,1254.849949836731,None,1255.4625618457794,None,1256.4373619556427,1256.7937688827515,1256.4373619556427,1256.7937688827515,1255.4625618457794,None,1255.4625618457794,None,1255.4625618457794,None,-1,-1,1,True,239.68243598937988,2206.4287662506104,left,1259.8021039962769,None,pp_3,icub,clamp,2021_Dec_21_1036,exp,2021.2.3,60.00846982339274,
right,stop,2,0,2,0,6,5,41,5,1260.3328189849854,None,1,0.505824089050293,1260.3328189849854,None,1260.9395599365234,None,1261.9543709754944,1262.3069179058075,1261.9543709754944,1262.3069179058075,1260.9395599365234,None,1260.9395599365234,None,1260.9395599365234,None,1650,1450,1,True,273.834228515625,-1.0,-1,1266.1028587818146,None,pp_3,icub,clamp,2021_Dec_21_1036,exp,2021.2.3,60.00846982339274,
right,stop,2,0,2,0,7,0,42,5,1266.6339809894562,None,1,0.42615699768066406,1266.6339809894562,None,1267.1853199005127,None,1268.170159816742,1268.5404918193817,1268.170159816742,1268.5404918193817,1267.1853199005127,None,1267.1853199005127,None,1267.1853199005127,None,,,0,False,-1.0,-1.0,-1,1269.0026679039001,None,pp_3,icub,clamp,2021_Dec_21_1036,exp,2021.2.3,60.00846982339274,
right,go,2,0,2,0,7,1,43,3,1269.5347809791565,None,1,0.938305139541626,1269.5347809791565,None,1270.5821459293365,None,1271.550155878067,1271.8941719532013,1271.550155878067,1271.8941719532013,1270.5821459293365,None,1270.5821459293365,None,1270.5821459293365,None,-1,-1,1,True,798.851728439331,1788.527488708496,right,1275.0740678310394,None,pp_3,icub,clamp,2021_Dec_21_1036,exp,2021.2.3,60.00846982339274,
left,go,2,0,2,0,7,2,44,0,1275.575050830841,None,1,0.7086360454559326,1275.575050830841,None,1276.3691577911377,None,1277.3722188472748,1277.7260868549347,1277.3722188472748,1277.7260868549347,1276.3691577911377,None,1276.3691577911377,None,1276.3691577911377,None,-1,-1,1,True,584.9149227142334,1774.315357208252,left,1280.6179628372192,None,pp_3,icub,clamp,2021_Dec_21_1036,exp,2021.2.3,60.00846982339274,
left,go,2,0,2,0,7,3,45,0,1281.1377367973328,None,1,0.5799219608306885,1281.1377367973328,None,1281.7931609153748,None,1282.7947099208832,1283.1422319412231,1282.7947099208832,1283.1422319412231,1281.7931609153748,None,1281.7931609153748,None,1281.7931609153748,None,-1,-1,1,True,604.0589809417725,1937.3209476470947,left,1286.24281001091,None,pp_3,icub,clamp,2021_Dec_21_1036,exp,2021.2.3,60.00846982339274,
left,go,2,0,2,0,7,4,46,1,1286.7492339611053,None,1,0.5980269908905029,1286.7492339611053,None,1287.4757099151611,None,1288.4824469089508,1288.834951877594,1288.4824469089508,1288.834951877594,1287.4757099151611,None,1287.4757099151611,None,1287.4757099151611,None,-1,-1,1,True,297.2884178161621,1852.8242111206055,left,1291.5129318237305,None,pp_3,icub,clamp,2021_Dec_21_1036,exp,2021.2.3,60.00846982339274,
left,stop,2,0,2,0,7,5,47,2,1292.0180368423462,None,1,0.6384270191192627,1292.0180368423462,None,1292.7472968101501,None,1293.7538537979126,1294.1126918792725,1293.7538537979126,1294.1126918792725,1292.7472968101501,None,1292.7472968101501,None,1292.7472968101501,None,1650,1500,1,True,343.137264251709,-1.0,-1,1297.9760429859161,None,pp_3,icub,clamp,2021_Dec_21_1036,exp,2021.2.3,60.00846982339274,
left,stop,2,0,2,0,8,0,48,2,1298.5095620155334,None,1,0.3693969249725342,1298.5095620155334,None,1298.9989078044891,None,1299.983951807022,1300.3372337818146,1299.983951807022,1300.3372337818146,1298.9989078044891,None,1298.9989078044891,None,1298.9989078044891,None,1700,1500,1,True,336.43221855163574,-1.0,-1,1304.229887008667,None,pp_3,icub,clamp,2021_Dec_21_1036,exp,2021.2.3,60.00846982339274,
left,stop,2,0,2,0,8,1,49,2,1304.7634317874908,None,1,0.3735389709472656,1304.7634317874908,None,1305.25345993042,None,1306.2328798770905,1306.5599157810211,1306.2328798770905,1306.5599157810211,1305.25345993042,None,1305.25345993042,None,1305.25345993042,None,1750,1500,1,True,416.5668487548828,-1.0,-1,1310.5471258163452,None,pp_3,icub,clamp,2021_Dec_21_1036,exp,2021.2.3,60.00846982339274,
left,go,2,0,2,0,8,2,50,0,1311.0808398723602,None,1,0.5220890045166016,1311.0808398723602,None,1311.6939489841461,None,1312.6719257831573,1312.9978568553925,1312.6719257831573,1312.9978568553925,1311.6939489841461,None,1311.6939489841461,None,1311.6939489841461,None,-1,-1,1,True,311.1836910247803,2525.6075859069824,left,1316.3977799415588,None,pp_3,icub,clamp,2021_Dec_21_1036,exp,2021.2.3,60.00846982339274,
left,go,2,0,2,0,8,3,51,0,1316.9047257900238,None,1,0.5790250301361084,1316.9047257900238,None,1317.569445848465,None,1318.577253818512,1318.933377981186,1318.577253818512,1318.933377981186,1317.569445848465,None,1317.569445848465,None,1317.569445848465,None,-1,-1,1,True,375.21815299987793,2037.5280380249023,left,1321.8765079975128,None,pp_3,icub,clamp,2021_Dec_21_1036,exp,2021.2.3,60.00846982339274,
left,go,2,0,2,0,8,4,52,0,1322.3937039375305,None,1,0.40851902961730957,1322.3937039375305,None,1322.9353988170624,None,1323.9481749534607,1324.2992298603058,1323.9481749534607,1324.2992298603058,1322.9353988170624,None,1322.9353988170624,None,1322.9353988170624,None,-1,-1,1,True,527.8186798095703,1759.9120140075684,left,1327.1241879463196,None,pp_3,icub,clamp,2021_Dec_21_1036,exp,2021.2.3,60.00846982339274,
right,stop,2,0,2,0,8,5,53,5,1327.641963005066,None,1,1.1906230449676514,1327.641963005066,None,1328.9233129024506,None,1329.9266028404236,1330.2899479866028,1329.9266028404236,1330.2899479866028,1328.9233129024506,None,1328.9233129024506,None,1328.9233129024506,None,1800,1500,1,True,519.0455913543701,-1.0,-1,1334.3416278362274,None,pp_3,icub,clamp,2021_Dec_21_1036,exp,2021.2.3,60.00846982339274,
left,go,2,0,2,0,9,0,54,0,1334.8758778572083,None,1,0.5221030712127686,1334.8758778572083,None,1335.4899837970734,None,1336.4731168746948,1336.8298218250275,1336.4731168746948,1336.8298218250275,1335.4899837970734,None,1335.4899837970734,None,1335.4899837970734,None,-1,-1,1,True,657.2482585906982,2116.5719032287598,left,1340.1401770114899,None,pp_3,icub,clamp,2021_Dec_21_1036,exp,2021.2.3,60.00846982339274,
right,go,2,0,2,0,9,1,55,3,1340.6730399131775,None,1,0.6562318801879883,1340.6730399131775,None,1341.4671738147736,None,1342.4691050052643,1342.8299160003662,1342.4691050052643,1342.8299160003662,1341.4671738147736,None,1341.4671738147736,None,1341.4671738147736,None,-1,-1,1,True,934.3721866607666,1527.9297828674316,right,1345.8246059417725,None,pp_3,icub,clamp,2021_Dec_21_1036,exp,2021.2.3,60.00846982339274,
left,stop,2,0,2,0,9,2,56,2,1346.335510969162,None,1,0.48857879638671875,1346.335510969162,None,1346.9399728775024,None,1347.9694459438324,1348.3230648040771,1347.9694459438324,1348.3230648040771,1346.9399728775024,None,1346.9399728775024,None,1346.9399728775024,None,1800,1550,0,True,758.4710121154785,1535.2153778076172,left,1351.1330699920654,None,pp_3,icub,clamp,2021_Dec_21_1036,exp,2021.2.3,60.00846982339274,
right,stop,2,0,2,0,9,3,57,5,1351.6438348293304,None,1,1.0753989219665527,1351.6438348293304,None,1352.8102049827576,None,1353.8274829387665,1354.1864748001099,1353.8274829387665,1354.1864748001099,1352.8102049827576,None,1352.8102049827576,None,1352.8102049827576,None,1750,1550,1,True,663.8698577880859,-1.0,-1,1358.3741979599,None,pp_3,icub,clamp,2021_Dec_21_1036,exp,2021.2.3,60.00846982339274,
left,go,2,0,2,0,9,4,58,0,1358.8687558174133,None,1,0.7390189170837402,1358.8687558174133,None,1359.7302289009094,None,1360.7285718917847,1361.061360836029,1360.7285718917847,1361.061360836029,1359.7302289009094,None,1359.7302289009094,None,1359.7302289009094,None,-1,-1,1,True,739.978551864624,2232.46431350708,left,1364.5988059043884,None,pp_3,icub,clamp,2021_Dec_21_1036,exp,2021.2.3,60.00846982339274,
left,stop,2,0,2,0,9,5,59,2,1365.09907579422,None,1,0.8895778656005859,1365.09907579422,None,1366.07453083992,None,1367.1023650169373,1367.446440935135,1367.1023650169373,1367.446440935135,1366.07453083992,None,1366.07453083992,None,1366.07453083992,None,1750,1600,1,True,745.2249526977539,-1.0,-1,1371.7131218910217,None,pp_3,icub,clamp,2021_Dec_21_1036,exp,2021.2.3,60.00846982339274,
right,stop,2,0,2,0,10,0,60,5,1372.245505809784,None,1,0.4651060104370117,1372.245505809784,None,1372.7977468967438,None,1373.7840650081635,1374.134701013565,1373.7840650081635,1374.134701013565,1372.7977468967438,None,1372.7977468967438,None,1372.7977468967438,None,1800,1600,1,True,192.88396835327148,-1.0,-1,1377.8589630126953,None,pp_3,icub,clamp,2021_Dec_21_1036,exp,2021.2.3,60.00846982339274,
right,go,2,0,2,0,10,1,61,4,1378.391804933548,None,1,0.5539600849151611,1378.391804933548,None,1379.067438840866,None,1380.0772969722748,1380.4353468418121,1380.0772969722748,1380.4353468418121,1379.067438840866,None,1379.067438840866,None,1379.067438840866,None,-1,-1,0,False,256.3145160675049,-1.0,-1,1384.2219688892365,None,pp_3,icub,clamp,2021_Dec_21_1036,exp,2021.2.3,60.00846982339274,
left,go,2,0,2,0,10,2,62,1,1384.729148864746,None,1,0.9581029415130615,1384.729148864746,None,1385.7679109573364,None,1386.7752418518066,1387.1321709156036,1386.7752418518066,1387.1321709156036,1385.7679109573364,None,1385.7679109573364,None,1385.7679109573364,None,-1,-1,1,True,414.31617736816406,1651.8540382385254,left,1389.7275660037994,None,pp_3,icub,clamp,2021_Dec_21_1036,exp,2021.2.3,60.00846982339274,
right,go,2,0,2,0,10,3,63,3,1390.2460207939148,None,1,0.6309800148010254,1390.2460207939148,None,1390.978646993637,None,1391.9741399288177,1392.3408517837524,1391.9741399288177,1392.3408517837524,1390.978646993637,None,1390.978646993637,None,1390.978646993637,None,-1,-1,1,True,645.7564830780029,1806.1704635620117,right,1395.3248748779297,None,pp_3,icub,clamp,2021_Dec_21_1036,exp,2021.2.3,60.00846982339274,
right,go,2,0,2,0,10,4,64,3,1395.8424708843231,None,1,0.7886350154876709,1395.8424708843231,None,1396.7554228305817,None,1397.7736809253693,1398.1341788768768,1397.7736809253693,1398.1341788768768,1396.7554228305817,None,1396.7554228305817,None,1396.7554228305817,None,-1,-1,1,True,404.99258041381836,2613.939046859741,right,1401.684966802597,None,pp_3,icub,clamp,2021_Dec_21_1036,exp,2021.2.3,60.00846982339274,
right,go,2,0,2,0,10,5,65,4,1402.2050778865814,None,1,0.5671019554138184,1402.2050778865814,None,1402.8729238510132,None,1403.8688039779663,1404.2218868732452,1403.8688039779663,1404.2218868732452,1402.8729238510132,None,1402.8729238510132,None,1402.8729238510132,None,-1,-1,1,True,461.9576930999756,2402.716636657715,right,1407.630351781845,None,pp_3,icub,clamp,2021_Dec_21_1036,exp,2021.2.3,60.00846982339274,
right,stop,2,0,2,0,11,0,66,5,1408.1475038528442,None,1,0.6587119102478027,1408.1475038528442,None,1408.9248299598694,None,1409.9481899738312,1410.298411846161,1409.9481899738312,1410.298411846161,1408.9248299598694,None,1408.9248299598694,None,1408.9248299598694,None,1800,1650,1,True,400.9571075439453,-1.0,-1,1414.2251288890839,None,pp_3,icub,clamp,2021_Dec_21_1036,exp,2021.2.3,60.00846982339274,
left,go,2,0,2,0,11,1,67,0,1414.7602458000183,None,1,0.4843430519104004,1414.7602458000183,None,1415.373636007309,None,1416.360685825348,1416.7182807922363,1416.360685825348,1416.7182807922363,1415.373636007309,None,1415.373636007309,None,1415.373636007309,None,-1,-1,1,True,86.87233924865723,2631.831169128418,left,1419.9877429008484,None,pp_3,icub,clamp,2021_Dec_21_1036,exp,2021.2.3,60.00846982339274,
left,stop,2,0,2,0,11,2,68,2,1420.5060238838196,None,1,0.5280210971832275,1420.5060238838196,None,1421.1146459579468,None,1422.146800994873,1422.475172996521,1422.146800994873,1422.475172996521,1421.1146459579468,None,1421.1146459579468,None,1421.1146459579468,None,1800,1700,1,True,229.16102409362793,-1.0,-1,1426.2205719947815,None,pp_3,icub,clamp,2021_Dec_21_1036,exp,2021.2.3,60.00846982339274,
right,go,2,0,2,0,11,3,69,3,1426.7541768550873,None,1,0.36737799644470215,1426.7541768550873,None,1427.244019985199,None,1428.2253649234772,1428.571299791336,1428.2253649234772,1428.571299791336,1427.244019985199,None,1427.244019985199,None,1427.244019985199,None,-1,-1,1,True,574.0232467651367,1971.0948467254639,right,1431.6875739097595,None,pp_3,icub,clamp,2021_Dec_21_1036,exp,2021.2.3,60.00846982339274,
right,stop,2,0,2,0,11,4,70,5,1432.1875109672546,None,1,0.5746538639068604,1432.1875109672546,None,1432.8545439243317,None,1433.85391497612,1434.2114307880402,1433.85391497612,1434.2114307880402,1432.8545439243317,None,1432.8545439243317,None,1432.8545439243317,None,1850,1700,1,True,471.42934799194336,-1.0,-1,1438.2130408287048,None,pp_3,icub,clamp,2021_Dec_21_1036,exp,2021.2.3,60.00846982339274,
right,go,2,0,2,0,11,5,71,4,1438.7455649375916,None,1,0.5029170513153076,1438.7455649375916,None,1439.3604788780212,None,1440.3461527824402,1440.708872795105,1440.3461527824402,1440.708872795105,1439.3604788780212,None,1439.3604788780212,None,1439.3604788780212,None,-1,-1,1,True,251.92952156066895,1944.692850112915,right,1443.4325997829437,None,pp_3,icub,clamp,2021_Dec_21_1036,exp,2021.2.3,60.00846982339274,
right,go,2,0,2,0,12,0,72,4,1443.9391508102417,None,1,0.6656589508056641,1443.9391508102417,None,1444.7298347949982,None,1445.7608878612518,1446.1234798431396,1445.7608878612518,1446.1234798431396,1444.7298347949982,None,1444.7298347949982,None,1444.7298347949982,None,-1,-1,1,True,331.5317630767822,2185.4283809661865,right,1449.127299785614,None,pp_3,icub,clamp,2021_Dec_21_1036,exp,2021.2.3,60.00846982339274,
left,go,2,0,2,0,12,1,73,0,1449.648453950882,None,1,0.5513432025909424,1449.648453950882,None,1450.3146238327026,None,1451.3283269405365,1451.692153930664,1451.3283269405365,1451.692153930664,1450.3146238327026,None,1450.3146238327026,None,1450.3146238327026,None,-1,-1,1,True,494.8451519012451,1890.7413482666016,left,1454.6077699661255,None,pp_3,icub,clamp,2021_Dec_21_1036,exp,2021.2.3,60.00846982339274,
right,go,2,0,2,0,12,2,74,3,1455.1232438087463,None,1,0.3908860683441162,1455.1232438087463,None,1455.6048707962036,None,1456.594141960144,1456.9538848400116,1456.594141960144,1456.9538848400116,1455.6048707962036,None,1455.6048707962036,None,1455.6048707962036,None,-1,-1,1,True,484.67183113098145,1915.8453941345215,right,1459.8763058185577,None,pp_3,icub,clamp,2021_Dec_21_1036,exp,2021.2.3,60.00846982339274,
left,go,2,0,2,0,12,3,75,1,1460.3916409015656,None,1,0.4262230396270752,1460.3916409015656,None,1460.9328138828278,None,1461.92715883255,1462.2873468399048,1461.92715883255,1462.2873468399048,1460.9328138828278,None,1460.9328138828278,None,1460.9328138828278,None,-1,-1,1,True,277.4379253387451,2200.558662414551,left,1465.2972388267517,None,pp_3,icub,clamp,2021_Dec_21_1036,exp,2021.2.3,60.00846982339274,
right,stop,2,0,2,0,12,4,76,5,1465.805722951889,None,1,0.36514997482299805,1465.805722951889,None,1466.285161972046,None,1467.277195930481,1467.6376008987427,1467.277195930481,1467.6376008987427,1466.285161972046,None,1466.285161972046,None,1466.285161972046,None,1850,1750,1,True,223.73437881469727,-1.0,-1,1471.3833808898926,None,pp_3,icub,clamp,2021_Dec_21_1036,exp,2021.2.3,60.00846982339274,
right,stop,2,0,2,0,12,5,77,5,1471.9161629676819,None,1,1.961216926574707,1471.9161629676819,None,1473.963660955429,None,1474.9462659358978,1475.292032957077,1474.9462659358978,1475.292032957077,1473.963660955429,None,1473.963660955429,None,1473.963660955429,None,1850,1800,1,True,321.4547634124756,-1.0,-1,1479.180125951767,None,pp_3,icub,clamp,2021_Dec_21_1036,exp,2021.2.3,60.00846982339274,
left,go,3,0,3,0,0,0,0,1,1574.529914855957,None,1,4.317452907562256,1574.529914855957,None,1578.9328768253326,None,1579.9203457832336,1580.2594459056854,1579.9203457832336,1580.2594459056854,1578.9328768253326,None,1578.9328768253326,None,1578.9328768253326,None,-1,-1,1,True,424.3335723876953,2444.0367221832275,left,1583.6939179897308,None,pp_3,icub,clamp,2021_Dec_21_1036,exp,2021.2.3,60.00846982339274,
left,go,3,0,3,0,0,1,1,1,1584.208950996399,None,1,0.7193629741668701,1584.208950996399,None,1585.0617809295654,None,1586.0791549682617,1586.4428448677063,1586.0791549682617,1586.4428448677063,1585.0617809295654,None,1585.0617809295654,None,1585.0617809295654,None,-1,-1,1,True,307.15084075927734,2821.357488632202,left,1590.0939848423004,None,pp_3,icub,clamp,2021_Dec_21_1036,exp,2021.2.3,60.00846982339274,
right,go,3,0,3,0,0,2,2,4,1590.6118760108948,None,1,0.5106730461120605,1590.6118760108948,None,1591.2181417942047,None,1592.2248198986053,1592.5738818645477,1592.2248198986053,1592.5738818645477,1591.2181417942047,None,1591.2181417942047,None,1591.2181417942047,None,-1,-1,1,True,195.56403160095215,2432.9733848571777,right,1595.7313117980957,None,pp_3,icub,clamp,2021_Dec_21_1036,exp,2021.2.3,60.00846982339274,
right,go,3,0,3,0,0,3,3,3,1596.234838962555,None,1,0.5696280002593994,1596.234838962555,None,1596.9050478935242,None,1597.9285428524017,1598.2862129211426,1597.9285428524017,1598.2862129211426,1596.9050478935242,None,1596.9050478935242,None,1596.9050478935242,None,-1,-1,1,True,188.8720989227295,2505.990505218506,right,1601.4911170005798,None,pp_3,icub,clamp,2021_Dec_21_1036,exp,2021.2.3,60.00846982339274,
right,go,3,0,3,0,0,4,4,3,1602.0020518302917,None,1,0.4382438659667969,1602.0020518302917,None,1602.544434785843,None,1603.5650188922882,1603.9167659282684,1603.5650188922882,1603.9167659282684,1602.544434785843,None,1602.544434785843,None,1602.544434785843,None,-1,-1,1,True,244.3833351135254,2912.2464656829834,right,1607.600725889206,None,pp_3,icub,clamp,2021_Dec_21_1036,exp,2021.2.3,60.00846982339274,
left,stop,3,0,3,0,0,5,5,2,1608.1202239990234,None,1,0.5971310138702393,1608.1202239990234,None,1608.8449800014496,None,1609.8621168136597,1610.1880638599396,1609.8621168136597,1610.1880638599396,1608.8449800014496,None,1608.8449800014496,None,1608.8449800014496,None,1850,1850,1,True,398.79655838012695,-1.0,-1,1614.1190059185028,None,pp_3,icub,clamp,2021_Dec_21_1036,exp,2021.2.3,60.00846982339274,
right,stop,3,0,3,0,1,0,6,5,1614.6527259349823,None,1,0.4232468605041504,1614.6527259349823,None,1615.204342842102,None,1616.1965968608856,1616.5494589805603,1616.1965968608856,1616.5494589805603,1615.204342842102,None,1615.204342842102,None,1615.204342842102,None,1900,1850,0,True,1240.4158115386963,1685.7409477233887,right,1620.0152490139008,None,pp_3,icub,clamp,2021_Dec_21_1036,exp,2021.2.3,60.00846982339274,
left,stop,3,0,3,0,1,1,7,2,1620.5229449272156,None,1,0.7783079147338867,1620.5229449272156,None,1621.4337468147278,None,1622.4592518806458,1622.8128628730774,1622.4592518806458,1622.8128628730774,1621.4337468147278,None,1621.4337468147278,None,1621.4337468147278,None,1900,1800,0,True,869.2343235015869,2031.5353870391846,left,1626.2412419319153,None,pp_3,icub,clamp,2021_Dec_21_1036,exp,2021.2.3,60.00846982339274,
right,stop,3,0,3,0,1,2,8,5,1626.761873960495,None,1,1.114475965499878,1626.761873960495,None,1627.9863929748535,None,1628.9962129592896,1629.3529958724976,1628.9962129592896,1629.3529958724976,1627.9863929748535,None,1627.9863929748535,None,1627.9863929748535,None,1850,1800,0,True,345.6423282623291,2058.6252212524414,right,1632.2807478904724,None,pp_3,icub,clamp,2021_Dec_21_1036,exp,2021.2.3,60.00846982339274,
right,go,3,0,3,0,1,3,9,4,1632.7989299297333,None,1,0.734367847442627,1632.7989299297333,None,1633.639783859253,None,1634.6426589488983,1634.973935842514,1634.6426589488983,1634.973935842514,1633.639783859253,None,1633.639783859253,None,1633.639783859253,None,-1,-1,1,True,449.29981231689453,1781.5697193145752,right,1637.7769379615784,None,pp_3,icub,clamp,2021_Dec_21_1036,exp,2021.2.3,60.00846982339274,
right,stop,3,0,3,0,1,4,10,5,1638.2794988155365,None,1,0.8681259155273438,1638.2794988155365,None,1639.2578089237213,None,1640.2775168418884,1640.6410269737244,1640.2775168418884,1640.6410269737244,1639.2578089237213,None,1639.2578089237213,None,1639.2578089237213,None,1850,1750,1,True,277.6529788970947,-1.0,-1,1644.4444139003754,None,pp_3,icub,clamp,2021_Dec_21_1036,exp,2021.2.3,60.00846982339274,
left,go,3,0,3,0,1,5,11,0,1644.9779379367828,None,1,0.8989119529724121,1644.9779379367828,None,1645.962287902832,None,1646.9384789466858,1647.2813429832458,1646.9384789466858,1647.2813429832458,1645.962287902832,None,1645.962287902832,None,1645.962287902832,None,-1,-1,1,True,384.3951225280762,2191.8187141418457,left,1650.4152479171753,None,pp_3,icub,clamp,2021_Dec_21_1036,exp,2021.2.3,60.00846982339274,
right,stop,3,0,3,0,2,0,12,5,1650.9336848258972,None,1,0.8954291343688965,1650.9336848258972,None,1651.9097199440002,None,1652.9344918727875,1653.2848827838898,1652.9344918727875,1653.2848827838898,1651.9097199440002,None,1651.9097199440002,None,1651.9097199440002,None,1850,1800,1,True,250.2748966217041,-1.0,-1,1657.0611369609833,None,pp_3,icub,clamp,2021_Dec_21_1036,exp,2021.2.3,60.00846982339274,
left,stop,3,0,3,0,2,1,13,2,1657.593561887741,None,1,0.45023512840270996,1657.593561887741,None,1658.1434428691864,None,1659.1261298656464,1659.4782319068909,1659.1261298656464,1659.4782319068909,1658.1434428691864,None,1658.1434428691864,None,1658.1434428691864,None,1850,1850,1,True,304.0199279785156,-1.0,-1,1663.310810804367,None,pp_3,icub,clamp,2021_Dec_21_1036,exp,2021.2.3,60.00846982339274,
