Holder,Action,blocks.thisRepN,blocks.thisTrialN,blocks.thisN,blocks.thisIndex,trials.thisRepN,trials.thisTrialN,trials.thisN,trials.thisIndex,start_msg.started,start_msg.stopped,RespButton_start_trial.keys,RespButton_start_trial.rt,RespButton_start_trial.started,RespButton_start_trial.stopped,GREEN.started,GREEN.stopped,LEFT_RED.started,LEFT_RED.stopped,RIGHT_RED.started,RIGHT_RED.stopped,LEFT_CIRCLE.started,LEFT_CIRCLE.stopped,CENTER_CIRCLE.started,CENTER_CIRCLE.stopped,RIGHT_CIRCLE.started,RIGHT_CIRCLE.stopped,CORRECT,VALIDITY,RELEASE_TIME,TOUCH_TIME,BOTTLE_RESPONSE_POSITION,text.started,text.stopped,SOUND_DELAY_MS_LEFT,SOUND_DELAY_MS_RIGHT,pid,left_position,right_position,date,expName,psychopyVersion,frameRate,
right,go,0,0,0,0,0,0,0,4,44.78366708755493,None,1,23.432878971099854,44.78366708755493,None,68.33230495452881,None,None,None,None,None,68.33230495452881,None,68.33230495452881,None,68.33230495452881,None,0,False,-1.0,-1.0,-1,69.19179105758667,None,,,pilot1,icub,clamp,2021_Dec_20_1120,exp,2021.2.3,60.03372179235048,
left,go,0,0,0,0,0,1,1,1,69.7172019481659,None,1,0.8527259826660156,69.7172019481659,None,70.69970297813416,None,71.67778897285461,72.04986715316772,71.67778897285461,72.04986715316772,70.69970297813416,None,70.69970297813416,None,70.69970297813416,None,1,True,445.0864791870117,719.3007469177246,left,73.74180912971497,None,-1,-1,pilot1,icub,clamp,2021_Dec_20_1120,exp,2021.2.3,60.03372179235048,
right,go,0,0,0,0,0,2,2,3,74.2584080696106,None,1,0.8757309913635254,74.2584080696106,None,75.23507714271545,None,76.22871613502502,76.58790898323059,76.22871613502502,76.58790898323059,75.23507714271545,None,75.23507714271545,None,75.23507714271545,None,1,True,488.6462688446045,670.1350212097168,right,78.2765200138092,None,-1,-1,pilot1,icub,clamp,2021_Dec_20_1120,exp,2021.2.3,60.03372179235048,
left,stop,0,0,0,0,0,3,3,2,78.78155207633972,None,1,0.8035621643066406,78.78155207633972,None,79.68987512588501,None,80.69236612319946,81.02934503555298,80.69236612319946,81.02934503555298,79.68987512588501,None,79.68987512588501,None,79.68987512588501,None,1,True,572.9379653930664,-1.0,-1,85.16015315055847,None,500,500,pilot1,icub,clamp,2021_Dec_20_1120,exp,2021.2.3,60.03372179235048,
right,go,0,0,0,0,0,4,4,4,85.6902379989624,None,1,0.5446441173553467,85.6902379989624,None,86.3654670715332,None,87.34577202796936,87.68171095848083,87.34577202796936,87.68171095848083,86.3654670715332,None,86.3654670715332,None,86.3654670715332,None,1,True,464.71524238586426,802.4642467498779,right,89.52165293693542,None,-1,-1,pilot1,icub,clamp,2021_Dec_20_1120,exp,2021.2.3,60.03372179235048,
left,go,0,0,0,0,0,5,5,0,90.03494095802307,None,1,0.7723109722137451,90.03494095802307,None,90.88745403289795,None,91.8691520690918,92.2363350391388,91.8691520690918,92.2363350391388,90.88745403289795,None,90.88745403289795,None,90.88745403289795,None,1,True,676.8856048583984,711.749792098999,left,94.16182112693787,None,-1,-1,pilot1,icub,clamp,2021_Dec_20_1120,exp,2021.2.3,60.03372179235048,
right,go,0,0,0,0,1,0,6,3,94.677011013031,None,1,0.8394150733947754,94.677011013031,None,95.64908695220947,None,96.68493103981018,97.02745914459229,96.68493103981018,97.02745914459229,95.64908695220947,None,95.64908695220947,None,95.64908695220947,None,1,True,373.81815910339355,727.1933555603027,right,98.65553092956543,None,-1,-1,pilot1,icub,clamp,2021_Dec_20_1120,exp,2021.2.3,60.03372179235048,
right,stop,0,0,0,0,1,1,7,5,99.1616039276123,None,1,0.9946348667144775,99.1616039276123,None,100.26198410987854,None,101.26174902915955,101.62255311012268,101.26174902915955,101.62255311012268,100.26198410987854,None,100.26198410987854,None,100.26198410987854,None,1,True,449.0926265716553,-1.0,-1,105.59537315368652,None,550,500,pilot1,icub,clamp,2021_Dec_20_1120,exp,2021.2.3,60.03372179235048,
right,stop,0,0,0,0,1,2,8,5,106.12406301498413,None,1,0.7437138557434082,106.12406301498413,None,106.98060703277588,None,107.96052694320679,108.28691411018372,107.96052694320679,108.28691411018372,106.98060703277588,None,106.98060703277588,None,106.98060703277588,None,0,True,299.29351806640625,707.0872783660889,right,109.86089611053467,None,550,550,pilot1,icub,clamp,2021_Dec_20_1120,exp,2021.2.3,60.03372179235048,
left,go,0,0,0,0,1,3,9,0,110.37778210639954,None,1,1.4803409576416016,110.37778210639954,None,111.96595501899719,None,113.00264000892639,113.36529397964478,113.00264000892639,113.36529397964478,111.96595501899719,None,111.96595501899719,None,111.96595501899719,None,1,True,506.8933963775635,879.3075084686279,left,115.24470210075378,None,-1,-1,pilot1,icub,clamp,2021_Dec_20_1120,exp,2021.2.3,60.03372179235048,
left,go,0,0,0,0,1,4,10,1,115.74907898902893,None,1,0.84700608253479,115.74907898902893,None,116.72042393684387,None,117.71983408927917,118.08234405517578,117.71983408927917,118.08234405517578,116.72042393684387,None,116.72042393684387,None,116.72042393684387,None,1,True,334.5682621002197,860.9483242034912,left,119.80484294891357,None,-1,-1,pilot1,icub,clamp,2021_Dec_20_1120,exp,2021.2.3,60.03372179235048,
right,stop,0,0,0,0,1,5,11,5,120.31510996818542,None,1,0.7592289447784424,120.31510996818542,None,121.16527199745178,None,122.18342304229736,122.5319471359253,122.18342304229736,122.5319471359253,121.16527199745178,None,121.16527199745178,None,121.16527199745178,None,1,True,428.7736415863037,-1.0,-1,126.4883770942688,None,550,500,pilot1,icub,clamp,2021_Dec_20_1120,exp,2021.2.3,60.03372179235048,
left,stop,0,0,0,0,2,0,12,2,127.01841902732849,None,1,0.5893349647521973,127.01841902732849,None,127.69349598884583,None,128.68402814865112,129.02830600738525,128.68402814865112,129.02830600738525,127.69349598884583,None,127.69349598884583,None,127.69349598884583,None,1,True,77.61144638061523,-1.0,-1,132.63983607292175,None,550,550,pilot1,icub,clamp,2021_Dec_20_1120,exp,2021.2.3,60.03372179235048,
left,go,0,0,0,0,2,1,13,1,133.17055702209473,None,1,0.6712081432342529,133.17055702209473,None,133.96734309196472,None,134.9409749507904,135.2913830280304,134.9409749507904,135.2913830280304,133.96734309196472,None,133.96734309196472,None,133.96734309196472,None,1,True,329.30541038513184,804.481029510498,left,136.9885859489441,None,-1,-1,pilot1,icub,clamp,2021_Dec_20_1120,exp,2021.2.3,60.03372179235048,
right,stop,0,0,0,0,2,2,14,5,137.50426697731018,None,1,0.7246930599212646,137.50426697731018,None,138.35319995880127,None,139.37314105033875,139.72668194770813,139.37314105033875,139.72668194770813,138.35319995880127,None,138.35319995880127,None,138.35319995880127,None,1,True,316.41244888305664,-1.0,-1,143.57121801376343,None,600,550,pilot1,icub,clamp,2021_Dec_20_1120,exp,2021.2.3,60.03372179235048,
right,go,0,0,0,0,2,3,15,3,144.10225796699524,None,1,0.5943660736083984,144.10225796699524,None,144.83682513237,None,145.81825995445251,146.17123413085938,145.81825995445251,146.17123413085938,144.83682513237,None,144.83682513237,None,144.83682513237,None,1,True,538.7725830078125,801.8791675567627,right,148.070739030838,None,-1,-1,pilot1,icub,clamp,2021_Dec_20_1120,exp,2021.2.3,60.03372179235048,
left,go,0,0,0,0,2,4,16,1,148.58758807182312,None,1,0.85660719871521,148.58758807182312,None,149.55887413024902,None,150.58273196220398,150.93382692337036,150.58273196220398,150.93382692337036,149.55887413024902,None,149.55887413024902,None,149.55887413024902,None,1,True,499.21321868896484,806.344747543335,left,152.76840710639954,None,-1,-1,pilot1,icub,clamp,2021_Dec_20_1120,exp,2021.2.3,60.03372179235048,
left,go,0,0,0,0,2,5,17,0,153.30580496788025,None,1,0.9093220233917236,153.30580496788025,None,154.3386459350586,None,155.35673904418945,155.71386909484863,155.35673904418945,155.71386909484863,154.3386459350586,None,154.3386459350586,None,154.3386459350586,None,1,True,378.57913970947266,881.9003105163574,left,157.5015549659729,None,-1,-1,pilot1,icub,clamp,2021_Dec_20_1120,exp,2021.2.3,60.03372179235048,
left,go,0,0,0,0,3,0,18,1,158.01557898521423,None,1,0.7124719619750977,158.01557898521423,None,158.8609230518341,None,159.88824009895325,160.24441695213318,159.88824009895325,160.24441695213318,158.8609230518341,None,158.8609230518341,None,158.8609230518341,None,1,True,421.8428134918213,776.158332824707,left,161.96183514595032,None,-1,-1,pilot1,icub,clamp,2021_Dec_20_1120,exp,2021.2.3,60.03372179235048,
right,go,0,0,0,0,3,1,19,3,162.478196144104,None,1,0.7727079391479492,162.478196144104,None,163.3315110206604,None,164.3453869819641,164.7079050540924,164.3453869819641,164.7079050540924,163.3315110206604,None,163.3315110206604,None,163.3315110206604,None,1,True,258.75306129455566,782.768964767456,right,166.27436804771423,None,-1,-1,pilot1,icub,clamp,2021_Dec_20_1120,exp,2021.2.3,60.03372179235048,
left,stop,0,0,0,0,3,2,20,2,166.79383301734924,None,1,0.7051868438720703,166.79383301734924,None,167.5843620300293,None,168.58508014678955,168.9356451034546,168.58508014678955,168.9356451034546,167.5843620300293,None,167.5843620300293,None,167.5843620300293,None,0,True,394.6051597595215,771.9249725341797,left,170.63334012031555,None,600,600,pilot1,icub,clamp,2021_Dec_20_1120,exp,2021.2.3,60.03372179235048,
right,go,0,0,0,0,3,3,21,4,171.14250111579895,None,1,1.8053631782531738,171.14250111579895,None,173.04326605796814,None,174.07445406913757,174.43202710151672,174.07445406913757,174.43202710151672,173.04326605796814,None,173.04326605796814,None,173.04326605796814,None,1,True,423.8088130950928,815.0815963745117,right,176.16083407402039,None,-1,-1,pilot1,icub,clamp,2021_Dec_20_1120,exp,2021.2.3,60.03372179235048,
left,go,0,0,0,0,3,4,22,1,176.6660339832306,None,1,0.8677978515625,176.6660339832306,None,177.64491415023804,None,178.6414909362793,178.96871209144592,178.6414909362793,178.96871209144592,177.64491415023804,None,177.64491415023804,None,177.64491415023804,None,1,True,198.16350936889648,994.1809177398682,left,180.71954011917114,None,-1,-1,pilot1,icub,clamp,2021_Dec_20_1120,exp,2021.2.3,60.03372179235048,
right,stop,0,0,0,0,3,5,23,5,181.23712491989136,None,1,0.6846029758453369,181.23712491989136,None,182.02233600616455,None,183.04272413253784,183.39256811141968,183.04272413253784,183.39256811141968,182.02233600616455,None,182.02233600616455,None,182.02233600616455,None,1,True,373.0275630950928,-1.0,-1,187.29413199424744,None,550,600,pilot1,icub,clamp,2021_Dec_20_1120,exp,2021.2.3,60.03372179235048,
right,stop,0,0,0,0,4,0,24,5,187.82479405403137,None,1,0.940673828125,187.82479405403137,None,188.8687551021576,None,189.8479311466217,190.19393491744995,189.8479311466217,190.19393491744995,188.8687551021576,None,188.8687551021576,None,188.8687551021576,None,0,True,247.6060390472412,745.7959651947021,right,191.759015083313,None,550,650,pilot1,icub,clamp,2021_Dec_20_1120,exp,2021.2.3,60.03372179235048,
left,stop,0,0,0,0,4,1,25,2,192.2640950679779,None,1,2.1647448539733887,192.2640950679779,None,194.54004907608032,None,195.5469069480896,195.9042570590973,195.5469069480896,195.9042570590973,194.54004907608032,None,194.54004907608032,None,194.54004907608032,None,1,True,439.2809867858887,-1.0,-1,199.87345600128174,None,550,600,pilot1,icub,clamp,2021_Dec_20_1120,exp,2021.2.3,60.03372179235048,
right,go,0,0,0,0,4,2,26,4,200.36496806144714,None,1,1.1434199810028076,200.36496806144714,None,201.5957109928131,None,202.60571694374084,202.9665961265564,202.60571694374084,202.9665961265564,201.5957109928131,None,201.5957109928131,None,201.5957109928131,None,1,True,308.86101722717285,837.958574295044,right,204.64251494407654,None,-1,-1,pilot1,icub,clamp,2021_Dec_20_1120,exp,2021.2.3,60.03372179235048,
right,go,0,0,0,0,4,3,27,3,205.149001121521,None,1,0.7022981643676758,205.149001121521,None,205.9372091293335,None,206.95001196861267,207.3097701072693,206.95001196861267,207.3097701072693,205.9372091293335,None,205.9372091293335,None,205.9372091293335,None,1,True,523.4792232513428,821.4225769042969,right,209.1835479736328,None,-1,-1,pilot1,icub,clamp,2021_Dec_20_1120,exp,2021.2.3,60.03372179235048,
right,go,0,0,0,0,4,4,28,4,209.69253396987915,None,1,0.6641030311584473,209.69253396987915,None,210.47908210754395,None,211.49616813659668,211.82515597343445,211.49616813659668,211.82515597343445,210.47908210754395,None,210.47908210754395,None,210.47908210754395,None,1,True,589.7743701934814,804.5737743377686,right,213.77146196365356,None,-1,-1,pilot1,icub,clamp,2021_Dec_20_1120,exp,2021.2.3,60.03372179235048,
right,go,0,0,0,0,4,5,29,4,214.29865193367004,None,1,0.5310590267181396,214.29865193367004,None,214.96227598190308,None,215.97232103347778,216.32712507247925,215.97232103347778,216.32712507247925,214.96227598190308,None,214.96227598190308,None,214.96227598190308,None,1,True,413.46049308776855,855.0333976745605,right,218.11458706855774,None,-1,-1,pilot1,icub,clamp,2021_Dec_20_1120,exp,2021.2.3,60.03372179235048,
right,stop,0,0,0,0,5,0,30,5,218.63492393493652,None,1,0.47974085807800293,218.63492393493652,None,219.2151300907135,None,220.23672103881836,220.58044505119324,220.23672103881836,220.58044505119324,219.2151300907135,None,219.2151300907135,None,219.2151300907135,None,0,True,456.07542991638184,771.4788913726807,right,222.33940410614014,None,600,600,pilot1,icub,clamp,2021_Dec_20_1120,exp,2021.2.3,60.03372179235048,
left,stop,0,0,0,0,5,1,31,2,222.85314011573792,None,1,1.971614122390747,222.85314011573792,None,224.93943309783936,None,225.93860697746277,226.2909219264984,225.93860697746277,226.2909219264984,224.93943309783936,None,224.93943309783936,None,224.93943309783936,None,1,True,454.9992084503174,-1.0,-1,230.28103613853455,None,600,550,pilot1,icub,clamp,2021_Dec_20_1120,exp,2021.2.3,60.03372179235048,
right,stop,0,0,0,0,5,2,32,5,230.77292609214783,None,1,1.3853721618652344,230.77292609214783,None,232.248300075531,None,233.22719812393188,233.57464909553528,233.22719812393188,233.57464909553528,232.248300075531,None,232.248300075531,None,232.248300075531,None,1,True,500.382661819458,-1.0,-1,237.64121007919312,None,650,550,pilot1,icub,clamp,2021_Dec_20_1120,exp,2021.2.3,60.03372179235048,
right,go,0,0,0,0,5,3,33,3,238.17206692695618,None,1,0.7952969074249268,238.17206692695618,None,239.09221196174622,None,240.0703980922699,240.4181399345398,240.0703980922699,240.4181399345398,239.09221196174622,None,239.09221196174622,None,239.09221196174622,None,1,True,395.89929580688477,877.7470588684082,right,242.25923800468445,None,-1,-1,pilot1,icub,clamp,2021_Dec_20_1120,exp,2021.2.3,60.03372179235048,
left,go,0,0,0,0,5,4,34,0,242.77659010887146,None,1,0.5702769756317139,242.77659010887146,None,243.4390799999237,None,244.46582007408142,244.82300209999084,244.46582007408142,244.82300209999084,243.4390799999237,None,243.4390799999237,None,243.4390799999237,None,1,True,392.4388885498047,1024.7676372528076,left,246.72930812835693,None,-1,-1,pilot1,icub,clamp,2021_Dec_20_1120,exp,2021.2.3,60.03372179235048,
right,go,0,0,0,0,5,5,35,4,247.23587608337402,None,1,0.5318260192871094,247.23587608337402,None,247.89566612243652,None,248.91650199890137,249.27198696136475,248.91650199890137,249.27198696136475,247.89566612243652,None,247.89566612243652,None,247.89566612243652,None,1,True,546.8099117279053,975.571870803833,right,251.31080603599548,None,-1,-1,pilot1,icub,clamp,2021_Dec_20_1120,exp,2021.2.3,60.03372179235048,
left,go,0,0,0,0,6,0,36,1,251.81330108642578,None,1,0.48058199882507324,251.81330108642578,None,252.4122200012207,None,253.40408205986023,253.7301630973816,253.40408205986023,253.7301630973816,252.4122200012207,None,252.4122200012207,None,252.4122200012207,None,1,True,383.66079330444336,1002.4681091308594,left,255.68326711654663,None,-1,-1,pilot1,icub,clamp,2021_Dec_20_1120,exp,2021.2.3,60.03372179235048,
left,go,0,0,0,0,6,1,37,0,256.2006571292877,None,1,0.6420309543609619,256.2006571292877,None,256.92822098731995,None,257.9352879524231,258.3005449771881,257.9352879524231,258.3005449771881,256.92822098731995,None,256.92822098731995,None,256.92822098731995,None,1,True,564.0223026275635,928.1232357025146,left,260.323215007782,None,-1,-1,pilot1,icub,clamp,2021_Dec_20_1120,exp,2021.2.3,60.03372179235048,
left,stop,0,0,0,0,6,2,38,2,260.82504296302795,None,1,0.548314094543457,260.82504296302795,None,261.48632192611694,None,262.4839940071106,262.8501751422882,262.4839940071106,262.8501751422882,261.48632192611694,None,261.48632192611694,None,261.48632192611694,None,1,True,548.7849712371826,-1.0,-1,266.9206190109253,None,650,600,pilot1,icub,clamp,2021_Dec_20_1120,exp,2021.2.3,60.03372179235048,
right,stop,0,0,0,0,6,3,39,5,267.4511981010437,None,1,1.2669939994812012,267.4511981010437,None,268.80457496643066,None,269.78328800201416,270.14590096473694,269.78328800201416,270.14590096473694,268.80457496643066,None,268.80457496643066,None,268.80457496643066,None,1,True,477.8769016265869,-1.0,-1,274.17984199523926,None,700,600,pilot1,icub,clamp,2021_Dec_20_1120,exp,2021.2.3,60.03372179235048,
left,go,0,0,0,0,6,4,40,1,274.7119679450989,None,1,1.0951569080352783,274.7119679450989,None,275.93958592414856,None,276.91611099243164,277.2581491470337,276.91611099243164,277.2581491470337,275.93958592414856,None,275.93958592414856,None,275.93958592414856,None,1,True,224.02715682983398,713.7923240661621,left,278.744017124176,None,-1,-1,pilot1,icub,clamp,2021_Dec_20_1120,exp,2021.2.3,60.03372179235048,
left,go,0,0,0,0,6,5,41,1,279.26341915130615,None,1,0.6334588527679443,279.26341915130615,None,279.9886591434479,None,280.9968810081482,281.3521959781647,280.9968810081482,281.3521959781647,279.9886591434479,None,279.9886591434479,None,279.9886591434479,None,1,True,389.0964984893799,865.6723499298096,left,283.1333019733429,None,-1,-1,pilot1,icub,clamp,2021_Dec_20_1120,exp,2021.2.3,60.03372179235048,
right,go,0,0,0,0,7,0,42,4,283.6691870689392,None,1,0.6104271411895752,283.6691870689392,None,284.39476704597473,None,285.4024329185486,285.7258269786835,285.4024329185486,285.7258269786835,284.39476704597473,None,284.39476704597473,None,284.39476704597473,None,1,True,473.7129211425781,651.7205238342285,right,287.4109380245209,None,-1,-1,pilot1,icub,clamp,2021_Dec_20_1120,exp,2021.2.3,60.03372179235048,
left,go,0,0,0,0,7,1,43,0,287.93036794662476,None,1,0.9945199489593506,287.93036794662476,None,289.031494140625,None,290.0614309310913,290.4068250656128,290.0614309310913,290.4068250656128,289.031494140625,None,289.031494140625,None,289.031494140625,None,1,True,313.13252449035645,947.166919708252,left,292.1909749507904,None,-1,-1,pilot1,icub,clamp,2021_Dec_20_1120,exp,2021.2.3,60.03372179235048,
right,go,0,0,0,0,7,2,44,3,292.7101550102234,None,1,0.6601560115814209,292.7101550102234,None,293.49867010116577,None,294.5048990249634,294.8633179664612,294.5048990249634,294.8633179664612,293.49867010116577,None,293.49867010116577,None,293.49867010116577,None,1,True,377.1231174468994,971.0674285888672,right,296.732146024704,None,-1,-1,pilot1,icub,clamp,2021_Dec_20_1120,exp,2021.2.3,60.03372179235048,
right,go,0,0,0,0,7,3,45,3,297.2527770996094,None,1,0.5697691440582275,297.2527770996094,None,297.91805696487427,None,298.91776394844055,299.27311396598816,298.91776394844055,299.27311396598816,297.91805696487427,None,297.91805696487427,None,297.91805696487427,None,1,True,287.72568702697754,841.6705131530762,right,300.9286890029907,None,-1,-1,pilot1,icub,clamp,2021_Dec_20_1120,exp,2021.2.3,60.03372179235048,
right,go,0,0,0,0,7,4,46,3,301.43622303009033,None,1,0.675926923751831,301.43622303009033,None,302.2240171432495,None,303.24286103248596,303.59544610977173,303.24286103248596,303.59544610977173,302.2240171432495,None,302.2240171432495,None,302.2240171432495,None,1,True,258.7122917175293,922.3542213439941,right,305.2949709892273,None,-1,-1,pilot1,icub,clamp,2021_Dec_20_1120,exp,2021.2.3,60.03372179235048,
left,go,0,0,0,0,7,5,47,1,305.80254793167114,None,1,0.6259350776672363,305.80254793167114,None,306.52254915237427,None,307.5311279296875,307.87805700302124,307.5311279296875,307.87805700302124,306.52254915237427,None,306.52254915237427,None,306.52254915237427,None,1,True,458.7538242340088,971.6978073120117,left,309.8357410430908,None,-1,-1,pilot1,icub,clamp,2021_Dec_20_1120,exp,2021.2.3,60.03372179235048,
left,go,0,0,0,0,8,0,48,0,310.3565299510956,None,1,0.38582491874694824,310.3565299510956,None,310.8368630409241,None,311.8375401496887,312.1920049190521,311.8375401496887,312.1920049190521,310.8368630409241,None,310.8368630409241,None,310.8368630409241,None,1,True,505.7711601257324,932.2450160980225,left,314.1611261367798,None,-1,-1,pilot1,icub,clamp,2021_Dec_20_1120,exp,2021.2.3,60.03372179235048,
left,go,0,0,0,0,8,1,49,1,314.6733510494232,None,1,0.46810102462768555,314.6733510494232,None,315.2166471481323,None,316.2220289707184,316.5468909740448,316.2220289707184,316.5468909740448,315.2166471481323,None,315.2166471481323,None,315.2166471481323,None,1,True,592.2808647155762,761.3215446472168,left,318.46301102638245,None,-1,-1,pilot1,icub,clamp,2021_Dec_20_1120,exp,2021.2.3,60.03372179235048,
right,go,0,0,0,0,8,2,50,3,318.9751720428467,None,1,0.5938658714294434,318.9751720428467,None,319.70155000686646,None,320.71305298805237,321.0656750202179,320.71305298805237,321.0656750202179,319.70155000686646,None,319.70155000686646,None,319.70155000686646,None,1,True,249.38631057739258,912.9447937011719,right,322.7588949203491,None,-1,-1,pilot1,icub,clamp,2021_Dec_20_1120,exp,2021.2.3,60.03372179235048,
right,go,0,0,0,0,8,3,51,3,323.29005694389343,None,1,0.47206997871398926,323.29005694389343,None,323.89042711257935,None,324.90287613868713,325.25738310813904,324.90287613868713,325.25738310813904,323.89042711257935,None,323.89042711257935,None,323.89042711257935,None,1,True,295.84193229675293,972.7087020874023,right,327.0498299598694,None,-1,-1,pilot1,icub,clamp,2021_Dec_20_1120,exp,2021.2.3,60.03372179235048,
right,go,0,0,0,0,8,4,52,4,327.5656020641327,None,1,0.6456270217895508,327.5656020641327,None,328.29156708717346,None,329.28793001174927,329.6247911453247,329.28793001174927,329.6247911453247,328.29156708717346,None,328.29156708717346,None,328.29156708717346,None,1,True,409.7902774810791,878.9420127868652,right,331.47390508651733,None,-1,-1,pilot1,icub,clamp,2021_Dec_20_1120,exp,2021.2.3,60.03372179235048,
left,stop,0,0,0,0,8,5,53,2,331.9904510974884,None,1,0.5827691555023193,331.9904510974884,None,332.6584589481354,None,333.6573340892792,333.9990451335907,333.6573340892792,333.9990451335907,332.6584589481354,None,332.6584589481354,None,332.6584589481354,None,0,True,358.48307609558105,806.5953254699707,left,335.6997621059418,None,700,650,pilot1,icub,clamp,2021_Dec_20_1120,exp,2021.2.3,60.03372179235048,
right,stop,0,0,0,0,9,0,54,5,336.22990798950195,None,1,1.1864240169525146,336.22990798950195,None,337.5157561302185,None,338.5318350791931,338.8828921318054,338.5318350791931,338.8828921318054,337.5157561302185,None,337.5157561302185,None,337.5157561302185,None,1,True,524.1332054138184,-1.0,-1,342.93011713027954,None,650,650,pilot1,icub,clamp,2021_Dec_20_1120,exp,2021.2.3,60.03372179235048,
left,go,0,0,0,0,9,1,55,1,343.4234359264374,None,1,0.8982970714569092,343.4234359264374,None,344.4050769805908,None,345.4076111316681,345.7678339481354,345.4076111316681,345.7678339481354,344.4050769805908,None,344.4050769805908,None,344.4050769805908,None,1,True,151.79443359375,1078.0487060546875,left,347.50456714630127,None,-1,-1,pilot1,icub,clamp,2021_Dec_20_1120,exp,2021.2.3,60.03372179235048,
left,stop,0,0,0,0,9,2,56,2,348.02445912361145,None,1,0.45445919036865234,348.02445912361145,None,348.5694160461426,None,349.5644519329071,349.9185400009155,349.5644519329071,349.9185400009155,348.5694160461426,None,348.5694160461426,None,348.5694160461426,None,1,True,457.2162628173828,-1.0,-1,353.90016913414,None,650,700,pilot1,icub,clamp,2021_Dec_20_1120,exp,2021.2.3,60.03372179235048,
right,stop,0,0,0,0,9,3,57,5,354.43032598495483,None,1,0.9694569110870361,354.43032598495483,None,355.5365300178528,None,356.53845500946045,356.8992700576782,356.53845500946045,356.8992700576782,355.5365300178528,None,355.5365300178528,None,355.5365300178528,None,1,True,319.96703147888184,-1.0,-1,360.74639105796814,None,700,700,pilot1,icub,clamp,2021_Dec_20_1120,exp,2021.2.3,60.03372179235048,
right,go,0,0,0,0,9,4,58,4,361.2767059803009,None,1,0.9529948234558105,361.2767059803009,None,362.3198289871216,None,363.297327041626,363.646919965744,363.297327041626,363.646919965744,362.3198289871216,None,362.3198289871216,None,362.3198289871216,None,1,True,331.7728042602539,1106.3885688781738,right,365.6566641330719,None,-1,-1,pilot1,icub,clamp,2021_Dec_20_1120,exp,2021.2.3,60.03372179235048,
right,go,0,0,0,0,9,5,59,4,366.1654169559479,None,1,0.4946269989013672,366.1654169559479,None,366.7692971229553,None,367.79448914527893,368.1413321495056,367.79448914527893,368.1413321495056,366.7692971229553,None,366.7692971229553,None,366.7692971229553,None,1,True,474.59888458251953,1109.8005771636963,right,370.255490064621,None,-1,-1,pilot1,icub,clamp,2021_Dec_20_1120,exp,2021.2.3,60.03372179235048,
right,stop,0,0,0,0,10,0,60,5,370.77349495887756,None,1,0.454740047454834,370.77349495887756,None,371.30892515182495,None,372.3336429595947,372.66691398620605,372.3336429595947,372.66691398620605,371.30892515182495,None,371.30892515182495,None,371.30892515182495,None,1,True,334.63430404663086,-1.0,-1,376.5309901237488,None,700,750,pilot1,icub,clamp,2021_Dec_20_1120,exp,2021.2.3,60.03372179235048,
left,go,0,0,0,0,10,1,61,0,377.06091594696045,None,1,0.9377498626708984,377.06091594696045,None,378.1054470539093,None,379.0840480327606,379.43336510658264,379.0840480327606,379.43336510658264,378.1054470539093,None,378.1054470539093,None,378.1054470539093,None,1,True,239.9461269378662,844.904899597168,left,381.08523893356323,None,-1,-1,pilot1,icub,clamp,2021_Dec_20_1120,exp,2021.2.3,60.03372179235048,
left,go,0,0,0,0,10,2,62,0,381.58905005455017,None,1,0.4340059757232666,381.58905005455017,None,382.12739610671997,None,383.13649797439575,383.4890489578247,383.13649797439575,383.4890489578247,382.12739610671997,None,382.12739610671997,None,382.12739610671997,None,1,True,360.15892028808594,1048.0852127075195,left,385.4177420139313,None,-1,-1,pilot1,icub,clamp,2021_Dec_20_1120,exp,2021.2.3,60.03372179235048,
left,stop,0,0,0,0,10,3,63,2,385.92093896865845,None,1,0.33258485794067383,385.92093896865845,None,386.3393850326538,None,387.35083293914795,387.7029800415039,387.35083293914795,387.7029800415039,386.3393850326538,None,386.3393850326538,None,386.3393850326538,None,1,True,304.35848236083984,-1.0,-1,391.526624917984,None,700,800,pilot1,icub,clamp,2021_Dec_20_1120,exp,2021.2.3,60.03372179235048,
right,go,0,0,0,0,10,4,64,3,392.0574269294739,None,1,0.39231300354003906,392.0574269294739,None,392.5453839302063,None,393.5280909538269,393.88696908950806,393.5280909538269,393.88696908950806,392.5453839302063,None,392.5453839302063,None,392.5453839302063,None,1,True,297.3923683166504,1150.928020477295,right,395.86308193206787,None,-1,-1,pilot1,icub,clamp,2021_Dec_20_1120,exp,2021.2.3,60.03372179235048,
right,go,0,0,0,0,10,5,65,4,396.36908197402954,None,1,0.42943811416625977,396.36908197402954,None,396.90008902549744,None,397.9104599952698,398.26106309890747,397.9104599952698,398.26106309890747,396.90008902549744,None,396.90008902549744,None,396.90008902549744,None,1,True,257.9355239868164,1011.6586685180664,right,400.06022906303406,None,-1,-1,pilot1,icub,clamp,2021_Dec_20_1120,exp,2021.2.3,60.03372179235048,
left,stop,0,0,0,0,11,0,66,2,400.5717930793762,None,1,0.38615894317626953,400.5717930793762,None,401.052472114563,None,402.08615708351135,402.43782591819763,402.08615708351135,402.43782591819763,401.052472114563,None,401.052472114563,None,401.052472114563,None,1,True,466.9826030731201,-1.0,-1,406.4270031452179,None,750,800,pilot1,icub,clamp,2021_Dec_20_1120,exp,2021.2.3,60.03372179235048,
left,go,0,0,0,0,11,1,67,0,406.95837903022766,None,1,0.5642349720001221,406.95837903022766,None,407.63165307044983,None,408.6060891151428,408.948930978775,408.6060891151428,408.948930978775,407.63165307044983,None,407.63165307044983,None,407.63165307044983,None,1,True,378.4594535827637,884.6001625061035,left,410.7747781276703,None,-1,-1,pilot1,icub,clamp,2021_Dec_20_1120,exp,2021.2.3,60.03372179235048,
right,go,0,0,0,0,11,2,68,3,411.2985589504242,None,1,0.5005700588226318,411.2985589504242,None,411.9054009914398,None,412.9276371002197,413.27569007873535,412.9276371002197,413.27569007873535,411.9054009914398,None,411.9054009914398,None,411.9054009914398,None,1,True,449.509859085083,938.6012554168701,right,415.18616700172424,None,-1,-1,pilot1,icub,clamp,2021_Dec_20_1120,exp,2021.2.3,60.03372179235048,
left,go,0,0,0,0,11,3,69,0,415.6983759403229,None,1,0.38783788681030273,415.6983759403229,None,416.18196296691895,None,417.2017879486084,417.5344150066376,417.2017879486084,417.5344150066376,416.18196296691895,None,416.18196296691895,None,416.18196296691895,None,1,True,579.7863006591797,903.2871723175049,left,419.5403821468353,None,-1,-1,pilot1,icub,clamp,2021_Dec_20_1120,exp,2021.2.3,60.03372179235048,
left,go,0,0,0,0,11,4,70,0,420.0572090148926,None,1,0.44249701499938965,420.0572090148926,None,420.6003201007843,None,421.59394001960754,421.9445729255676,421.59394001960754,421.9445729255676,420.6003201007843,None,420.6003201007843,None,420.6003201007843,None,1,True,396.13986015319824,999.6862411499023,left,423.9012761116028,None,-1,-1,pilot1,icub,clamp,2021_Dec_20_1120,exp,2021.2.3,60.03372179235048,
left,stop,0,0,0,0,11,5,71,2,424.43287992477417,None,1,0.4239671230316162,424.43287992477417,None,424.97256898880005,None,425.98932003974915,426.3422169685364,425.98932003974915,426.3422169685364,424.97256898880005,None,424.97256898880005,None,424.97256898880005,None,1,True,508.8086128234863,-1.0,-1,430.3827359676361,None,800,800,pilot1,icub,clamp,2021_Dec_20_1120,exp,2021.2.3,60.03372179235048,
left,stop,0,0,0,0,12,0,72,2,430.9131441116333,None,1,0.9932980537414551,430.9131441116333,None,432.01719307899475,None,432.9957640171051,433.3407471179962,432.9957640171051,433.3407471179962,432.01719307899475,None,432.01719307899475,None,432.01719307899475,None,0,False,3000.5364418029785,-1.0,-1,436.9150331020355,None,,,pilot1,icub,clamp,2021_Dec_20_1120,exp,2021.2.3,60.03372179235048,
left,go,0,0,0,0,12,1,73,1,437.4072730541229,None,1,1.342674970626831,437.4072730541229,None,438.87382912635803,None,439.879271030426,440.2382061481476,439.879271030426,440.2382061481476,438.87382912635803,None,438.87382912635803,None,438.87382912635803,None,1,True,724.0290641784668,923.2511520385742,left,442.40977001190186,None,-1,-1,pilot1,icub,clamp,2021_Dec_20_1120,exp,2021.2.3,60.03372179235048,
right,go,0,0,0,0,12,2,74,4,442.91930198669434,None,1,2.464601993560791,442.91930198669434,None,445.4988429546356,None,446.5015609264374,446.84632897377014,446.5015609264374,446.84632897377014,445.4988429546356,None,445.4988429546356,None,445.4988429546356,None,1,True,640.2478218078613,748.2001781463623,right,448.76286792755127,None,-1,-1,pilot1,icub,clamp,2021_Dec_20_1120,exp,2021.2.3,60.03372179235048,
left,go,0,0,0,0,12,3,75,0,449.2796161174774,None,1,0.9965038299560547,449.2796161174774,None,450.38849210739136,None,451.4059760570526,451.76173305511475,451.4059760570526,451.76173305511475,450.38849210739136,None,450.38849210739136,None,450.38849210739136,None,1,True,605.3173542022705,847.7141857147217,left,453.7463870048523,None,-1,-1,pilot1,icub,clamp,2021_Dec_20_1120,exp,2021.2.3,60.03372179235048,
right,stop,0,0,0,0,12,4,76,5,454.25896692276,None,1,0.8387761116027832,454.25896692276,None,455.1730740070343,None,456.1522879600525,456.4932999610901,456.1522879600525,456.4932999610901,455.1730740070343,None,455.1730740070343,None,455.1730740070343,None,0,True,838.4819030761719,856.8661212921143,right,458.77054810523987,None,850,800,pilot1,icub,clamp,2021_Dec_20_1120,exp,2021.2.3,60.03372179235048,
left,stop,0,0,0,0,12,5,77,2,459.2910771369934,None,1,2.0066609382629395,459.2910771369934,None,461.37822699546814,None,462.4119849205017,462.737920999527,462.4119849205017,462.737920999527,461.37822699546814,None,461.37822699546814,None,461.37822699546814,None,0,True,499.8447895050049,906.0623645782471,left,464.6758370399475,None,850,750,pilot1,icub,clamp,2021_Dec_20_1120,exp,2021.2.3,60.03372179235048,
left,go,1,0,1,0,0,0,0,0,488.3252100944519,None,1,2.928234100341797,488.3252100944519,None,491.3338611125946,None,None,None,None,None,491.3338611125946,None,491.3338611125946,None,491.3338611125946,None,0,False,-1.0,-1.0,-1,491.46515011787415,None,,,pilot1,icub,clamp,2021_Dec_20_1120,exp,2021.2.3,60.03372179235048,
left,stop,1,0,1,0,0,1,1,2,491.9897770881653,None,1,3.3244290351867676,491.9897770881653,None,495.44013810157776,None,496.4535300731659,496.80342507362366,496.4535300731659,496.80342507362366,495.44013810157776,None,495.44013810157776,None,495.44013810157776,None,0,True,311.2647533416748,656.2390327453613,left,498.27612805366516,None,800,750,pilot1,icub,clamp,2021_Dec_20_1120,exp,2021.2.3,60.03372179235048,
right,go,1,0,1,0,0,2,2,4,498.7956099510193,None,1,3.0222160816192627,498.7956099510193,None,501.9287660121918,None,502.9261040687561,503.2774410247803,502.9261040687561,503.2774410247803,501.9287660121918,None,501.9287660121918,None,501.9287660121918,None,1,True,585.9882831573486,823.5948085784912,right,505.2180161476135,None,-1,-1,pilot1,icub,clamp,2021_Dec_20_1120,exp,2021.2.3,60.03372179235048,
left,go,1,0,1,0,0,3,3,1,505.733766078949,None,1,0.7130310535430908,505.733766078949,None,506.5272099971771,None,507.50839495658875,507.876531124115,507.50839495658875,507.876531124115,506.5272099971771,None,506.5272099971771,None,506.5272099971771,None,1,True,681.9376945495605,816.493034362793,left,509.90532898902893,None,-1,-1,pilot1,icub,clamp,2021_Dec_20_1120,exp,2021.2.3,60.03372179235048,
right,go,1,0,1,0,0,4,4,3,510.44050693511963,None,1,0.5970778465270996,510.44050693511963,None,511.16497898101807,None,512.1635279655457,512.4851670265198,512.1635279655457,512.4851670265198,511.16497898101807,None,511.16497898101807,None,511.16497898101807,None,1,True,428.2495975494385,802.0257949829102,right,514.306244134903,None,-1,-1,pilot1,icub,clamp,2021_Dec_20_1120,exp,2021.2.3,60.03372179235048,
right,go,1,0,1,0,0,5,5,4,514.8251490592957,None,1,0.6762409210205078,514.8251490592957,None,515.6110529899597,None,516.6405529975891,517.0009620189667,516.6405529975891,517.0009620189667,515.6110529899597,None,515.6110529899597,None,515.6110529899597,None,1,True,542.6332950592041,984.5826625823975,right,519.0400331020355,None,-1,-1,pilot1,icub,clamp,2021_Dec_20_1120,exp,2021.2.3,60.03372179235048,
left,go,1,0,1,0,1,0,6,0,519.5602669715881,None,1,0.6304700374603271,519.5602669715881,None,520.2909619808197,None,521.2896709442139,521.6323640346527,521.2896709442139,521.6323640346527,520.2909619808197,None,520.2909619808197,None,520.2909619808197,None,1,True,573.4431743621826,949.0742683410645,left,523.6799831390381,None,-1,-1,pilot1,icub,clamp,2021_Dec_20_1120,exp,2021.2.3,60.03372179235048,
left,stop,1,0,1,0,1,1,7,2,524.1946771144867,None,1,0.44983792304992676,524.1946771144867,None,524.7398080825806,None,525.7483470439911,526.0910770893097,525.7483470439911,526.0910770893097,524.7398080825806,None,524.7398080825806,None,524.7398080825806,None,1,True,355.9126853942871,-1.0,-1,529.9752049446106,None,750,750,pilot1,icub,clamp,2021_Dec_20_1120,exp,2021.2.3,60.03372179235048,
left,go,1,0,1,0,1,2,8,0,530.50621509552,None,1,0.6808450222015381,530.50621509552,None,531.3039529323578,None,532.2834439277649,532.6333179473877,532.2834439277649,532.6333179473877,531.3039529323578,None,531.3039529323578,None,531.3039529323578,None,1,True,271.91686630249023,914.4248962402344,left,534.3527541160583,None,-1,-1,pilot1,icub,clamp,2021_Dec_20_1120,exp,2021.2.3,60.03372179235048,
right,go,1,0,1,0,1,3,9,4,534.8659081459045,None,1,0.49471092224121094,534.8659081459045,None,535.4726319313049,None,536.4945449829102,536.8556571006775,536.4945449829102,536.8556571006775,535.4726319313049,None,535.4726319313049,None,535.4726319313049,None,1,True,272.63951301574707,1114.5164966583252,right,538.7308189868927,None,-1,-1,pilot1,icub,clamp,2021_Dec_20_1120,exp,2021.2.3,60.03372179235048,
left,go,1,0,1,0,1,4,10,1,539.2510650157928,None,1,0.5532660484313965,539.2510650157928,None,539.9200360774994,None,540.9483830928802,541.3003101348877,540.9483830928802,541.3003101348877,539.9200360774994,None,539.9200360774994,None,539.9200360774994,None,1,True,332.5936794281006,1125.9610652923584,left,543.2719349861145,None,-1,-1,pilot1,icub,clamp,2021_Dec_20_1120,exp,2021.2.3,60.03372179235048,
left,stop,1,0,1,0,1,5,11,2,543.7855560779572,None,1,0.4389779567718506,543.7855560779572,None,544.3304150104523,None,545.34889793396,545.6910381317139,545.34889793396,545.6910381317139,544.3304150104523,None,544.3304150104523,None,544.3304150104523,None,1,True,359.65800285339355,-1.0,-1,549.5634169578552,None,800,750,pilot1,icub,clamp,2021_Dec_20_1120,exp,2021.2.3,60.03372179235048,
right,stop,1,0,1,0,2,0,12,5,550.0946700572968,None,1,0.7912998199462891,550.0946700572968,None,551.0151381492615,None,552.020740032196,552.3721759319305,552.020740032196,552.3721759319305,551.0151381492615,None,551.0151381492615,None,551.0151381492615,None,1,True,455.6317329406738,-1.0,-1,556.3535840511322,None,850,750,pilot1,icub,clamp,2021_Dec_20_1120,exp,2021.2.3,60.03372179235048,
left,stop,1,0,1,0,2,1,13,2,556.8848850727081,None,1,0.8882019519805908,556.8848850727081,None,557.8676760196686,None,558.8480589389801,559.1977391242981,558.8480589389801,559.1977391242981,557.8676760196686,None,557.8676760196686,None,557.8676760196686,None,0,True,319.75460052490234,900.8688926696777,left,560.99072098732,None,850,800,pilot1,icub,clamp,2021_Dec_20_1120,exp,2021.2.3,60.03372179235048,
right,go,1,0,1,0,2,2,14,4,561.509467124939,None,1,1.2019250392913818,561.509467124939,None,562.8441691398621,None,563.8688271045685,564.2276170253754,563.8688271045685,564.2276170253754,562.8441691398621,None,562.8441691398621,None,562.8441691398621,None,1,True,349.54833984375,1153.3234119415283,right,566.2383630275726,None,-1,-1,pilot1,icub,clamp,2021_Dec_20_1120,exp,2021.2.3,60.03372179235048,
left,go,1,0,1,0,2,3,15,1,566.7306849956512,None,1,0.4383509159088135,566.7306849956512,None,567.2546019554138,None,568.2669069766998,568.6214909553528,568.2669069766998,568.6214909553528,567.2546019554138,None,567.2546019554138,None,567.2546019554138,None,1,True,449.8722553253174,1025.3746509552002,left,570.6160070896149,None,-1,-1,pilot1,icub,clamp,2021_Dec_20_1120,exp,2021.2.3,60.03372179235048,
left,stop,1,0,1,0,2,4,16,2,571.1339290142059,None,1,0.6636600494384766,571.1339290142059,None,571.9228219985962,None,572.9305529594421,573.2860651016235,572.9305529594421,573.2860651016235,571.9228219985962,None,571.9228219985962,None,571.9228219985962,None,1,True,451.1229991912842,-1.0,-1,577.2680621147156,None,800,800,pilot1,icub,clamp,2021_Dec_20_1120,exp,2021.2.3,60.03372179235048,
right,stop,1,0,1,0,2,5,17,5,577.7981140613556,None,1,0.722693920135498,577.7981140613556,None,578.656368970871,None,579.6357181072235,579.9972670078278,579.6357181072235,579.9972670078278,578.656368970871,None,578.656368970871,None,578.656368970871,None,0,True,268.65482330322266,987.9989624023438,right,581.7895979881287,None,850,800,pilot1,icub,clamp,2021_Dec_20_1120,exp,2021.2.3,60.03372179235048,
left,go,1,0,1,0,3,0,18,0,582.3003189563751,None,1,2.212104082107544,582.3003189563751,None,584.6333179473877,None,585.6587080955505,585.9999589920044,585.6587080955505,585.9999589920044,584.6333179473877,None,584.6333179473877,None,584.6333179473877,None,1,True,87.01920509338379,1421.6618537902832,left,588.0444450378418,None,-1,-1,pilot1,icub,clamp,2021_Dec_20_1120,exp,2021.2.3,60.03372179235048,
right,go,1,0,1,0,3,1,19,3,588.5490140914917,None,1,1.0340220928192139,588.5490140914917,None,589.7066910266876,None,590.7409560680389,591.1036820411682,590.7409560680389,591.1036820411682,589.7066910266876,None,589.7066910266876,None,589.7066910266876,None,1,True,446.98143005371094,1004.9962997436523,right,593.0411570072174,None,-1,-1,pilot1,icub,clamp,2021_Dec_20_1120,exp,2021.2.3,60.03372179235048,
right,go,1,0,1,0,3,2,20,3,593.5569410324097,None,1,1.093986988067627,593.5569410324097,None,594.7751190662384,None,595.770437002182,596.1149210929871,595.770437002182,596.1149210929871,594.7751190662384,None,594.7751190662384,None,594.7751190662384,None,1,True,574.6784210205078,993.5741424560547,right,598.2407510280609,None,-1,-1,pilot1,icub,clamp,2021_Dec_20_1120,exp,2021.2.3,60.03372179235048,
left,go,1,0,1,0,3,3,21,0,598.7412419319153,None,1,0.8631899356842041,598.7412419319153,None,599.7107040882111,None,600.7230830192566,601.073842048645,600.7230830192566,601.073842048645,599.7107040882111,None,599.7107040882111,None,599.7107040882111,None,1,True,513.5002136230469,1173.9935874938965,left,603.2828719615936,None,-1,-1,pilot1,icub,clamp,2021_Dec_20_1120,exp,2021.2.3,60.03372179235048,
right,go,1,0,1,0,3,4,22,3,603.8001279830933,None,1,0.8573050498962402,603.8001279830933,None,604.7864320278168,None,605.7889881134033,606.1378481388092,605.7889881134033,606.1378481388092,604.7864320278168,None,604.7864320278168,None,604.7864320278168,None,1,True,570.0595378875732,735.1655960083008,right,607.9636011123657,None,-1,-1,pilot1,icub,clamp,2021_Dec_20_1120,exp,2021.2.3,60.03372179235048,
right,stop,1,0,1,0,3,5,23,5,608.4886620044708,None,1,0.5205280780792236,608.4886620044708,None,609.0944991111755,None,610.104737997055,610.4597520828247,610.104737997055,610.4597520828247,609.0944991111755,None,609.0944991111755,None,609.0944991111755,None,0,True,515.988826751709,736.7126941680908,right,612.2358710765839,None,850,750,pilot1,icub,clamp,2021_Dec_20_1120,exp,2021.2.3,60.03372179235048,
left,go,1,0,1,0,4,0,24,1,612.7550070285797,None,1,1.407999038696289,612.7550070285797,None,614.2825779914856,None,615.2810890674591,615.6455960273743,615.2810890674591,615.6455960273743,614.2825779914856,None,614.2825779914856,None,614.2825779914856,None,1,True,514.8153305053711,761.43479347229,left,617.4588150978088,None,-1,-1,pilot1,icub,clamp,2021_Dec_20_1120,exp,2021.2.3,60.03372179235048,
right,go,1,0,1,0,4,1,25,3,617.9725370407104,None,1,0.8687398433685303,617.9725370407104,None,618.9471371173859,None,619.9710049629211,620.324784040451,619.9710049629211,620.324784040451,618.9471371173859,None,618.9471371173859,None,618.9471371173859,None,1,True,456.1445713043213,940.7227039337158,right,622.2461440563202,None,-1,-1,pilot1,icub,clamp,2021_Dec_20_1120,exp,2021.2.3,60.03372179235048,
right,go,1,0,1,0,4,2,26,4,622.7485201358795,None,1,0.5597310066223145,622.7485201358795,None,623.4147861003876,None,624.4172041416168,624.7639980316162,624.4172041416168,624.7639980316162,623.4147861003876,None,623.4147861003876,None,623.4147861003876,None,1,True,528.5727977752686,1017.0037746429443,right,626.8325910568237,None,-1,-1,pilot1,icub,clamp,2021_Dec_20_1120,exp,2021.2.3,60.03372179235048,
left,stop,1,0,1,0,4,3,27,2,627.3402769565582,None,1,0.47681093215942383,627.3402769565582,None,627.941045999527,None,628.9400689601898,629.2856540679932,628.9400689601898,629.2856540679932,627.941045999527,None,627.941045999527,None,627.941045999527,None,1,True,541.7346954345703,-1.0,-1,633.3891799449921,None,850,700,pilot1,icub,clamp,2021_Dec_20_1120,exp,2021.2.3,60.03372179235048,
left,go,1,0,1,0,4,4,28,0,633.9201390743256,None,1,1.0716350078582764,633.9201390743256,None,635.0873470306396,None,636.0657119750977,636.4024710655212,636.0657119750977,636.4024710655212,635.0873470306396,None,635.0873470306396,None,635.0873470306396,None,1,True,439.01538848876953,946.4774131774902,left,638.3454201221466,None,-1,-1,pilot1,icub,clamp,2021_Dec_20_1120,exp,2021.2.3,60.03372179235048,
left,stop,1,0,1,0,4,5,29,2,638.8669250011444,None,1,0.43292999267578125,638.8669250011444,None,639.4093430042267,None,640.4178960323334,640.7566730976105,640.4178960323334,640.7566730976105,639.4093430042267,None,639.4093430042267,None,639.4093430042267,None,1,True,336.3382816314697,-1.0,-1,644.647068977356,None,900,700,pilot1,icub,clamp,2021_Dec_20_1120,exp,2021.2.3,60.03372179235048,
right,stop,1,0,1,0,5,0,30,5,645.1797170639038,None,1,0.7417819499969482,645.1797170639038,None,646.0388600826263,None,647.0517859458923,647.3850660324097,647.0517859458923,647.3850660324097,646.0388600826263,None,646.0388600826263,None,646.0388600826263,None,1,True,403.7637710571289,-1.0,-1,651.3189179897308,None,950,700,pilot1,icub,clamp,2021_Dec_20_1120,exp,2021.2.3,60.03372179235048,
left,go,1,0,1,0,5,1,31,1,651.8496811389923,None,1,0.5318219661712646,651.8496811389923,None,652.4607479572296,None,653.4401371479034,653.7691180706024,653.4401371479034,653.7691180706024,652.4607479572296,None,652.4607479572296,None,652.4607479572296,None,1,True,407.8648090362549,1180.3631782531738,left,655.9316110610962,None,-1,-1,pilot1,icub,clamp,2021_Dec_20_1120,exp,2021.2.3,60.03372179235048,
right,go,1,0,1,0,5,2,32,3,656.4323530197144,None,1,0.4695730209350586,656.4323530197144,None,657.0249979496002,None,658.0582311153412,658.4220941066742,658.0582311153412,658.4220941066742,657.0249979496002,None,657.0249979496002,None,657.0249979496002,None,1,True,385.51974296569824,1342.5467014312744,right,660.636342048645,None,-1,-1,pilot1,icub,clamp,2021_Dec_20_1120,exp,2021.2.3,60.03372179235048,
left,go,1,0,1,0,5,3,33,1,661.1540451049805,None,1,0.4628469944000244,661.1540451049805,None,661.7445931434631,None,662.7720839977264,663.1282460689545,662.7720839977264,663.1282460689545,661.7445931434631,None,661.7445931434631,None,661.7445931434631,None,1,True,300.79030990600586,986.757755279541,left,664.932265996933,None,-1,-1,pilot1,icub,clamp,2021_Dec_20_1120,exp,2021.2.3,60.03372179235048,
right,stop,1,0,1,0,5,4,34,5,665.4471750259399,None,1,0.5811138153076172,665.4471750259399,None,666.1140041351318,None,667.1248030662537,667.4753839969635,667.1248030662537,667.4753839969635,666.1140041351318,None,666.1140041351318,None,666.1140041351318,None,1,True,356.1117649078369,-1.0,-1,671.3625600337982,None,950,750,pilot1,icub,clamp,2021_Dec_20_1120,exp,2021.2.3,60.03372179235048,
right,stop,1,0,1,0,5,5,35,5,671.896301984787,None,1,1.375135898590088,671.896301984787,None,673.378298997879,None,674.3811891078949,674.7367060184479,674.3811891078949,674.7367060184479,673.378298997879,None,673.378298997879,None,673.378298997879,None,0,True,546.7085838317871,710.9618186950684,right,676.5144031047821,None,950,800,pilot1,icub,clamp,2021_Dec_20_1120,exp,2021.2.3,60.03372179235048,
left,stop,1,0,1,0,6,0,36,2,677.0319600105286,None,1,1.233854055404663,677.0319600105286,None,678.371237039566,None,679.3867950439453,679.7405271530151,679.3867950439453,679.7405271530151,678.371237039566,None,678.371237039566,None,678.371237039566,None,0,True,689.622163772583,899.8634815216064,left,681.8361999988556,None,950,750,pilot1,icub,clamp,2021_Dec_20_1120,exp,2021.2.3,60.03372179235048,
left,stop,1,0,1,0,6,1,37,2,682.3559789657593,None,1,1.4218299388885498,682.3559789657593,None,683.8879001140594,None,684.8870511054993,685.2382910251617,684.8870511054993,685.2382910251617,683.8879001140594,None,683.8879001140594,None,683.8879001140594,None,1,True,745.9988594055176,-1.0,-1,689.5235109329224,None,900,750,pilot1,icub,clamp,2021_Dec_20_1120,exp,2021.2.3,60.03372179235048,
left,go,1,0,1,0,6,2,38,0,690.0162699222565,None,1,2.6482248306274414,690.0162699222565,None,692.7862589359283,None,693.7701990604401,694.1199100017548,693.7701990604401,694.1199100017548,692.7862589359283,None,692.7862589359283,None,692.7862589359283,None,1,True,496.35839462280273,1167.7436828613281,left,696.3510551452637,None,-1,-1,pilot1,icub,clamp,2021_Dec_20_1120,exp,2021.2.3,60.03372179235048,
right,go,1,0,1,0,6,3,39,3,696.8606269359589,None,1,0.5806610584259033,696.8606269359589,None,697.5268740653992,None,698.5504491329193,698.9076659679413,698.5504491329193,698.9076659679413,697.5268740653992,None,697.5268740653992,None,697.5268740653992,None,1,True,720.172643661499,1146.8150615692139,right,701.3005940914154,None,-1,-1,pilot1,icub,clamp,2021_Dec_20_1120,exp,2021.2.3,60.03372179235048,
right,go,1,0,1,0,6,4,40,4,701.8307199478149,None,1,0.518604040145874,701.8307199478149,None,702.435142993927,None,703.43248295784,703.7906210422516,703.43248295784,703.7906210422516,702.435142993927,None,702.435142993927,None,702.435142993927,None,1,True,525.9613990783691,1132.741928100586,right,705.9631960391998,None,-1,-1,pilot1,icub,clamp,2021_Dec_20_1120,exp,2021.2.3,60.03372179235048,
left,go,1,0,1,0,6,5,41,0,706.4774830341339,None,1,0.8740379810333252,706.4774830341339,None,707.4515199661255,None,708.4483969211578,708.8046100139618,708.4483969211578,708.8046100139618,707.4515199661255,None,707.4515199661255,None,707.4515199661255,None,1,True,493.60179901123047,1163.6133193969727,left,710.9931619167328,None,-1,-1,pilot1,icub,clamp,2021_Dec_20_1120,exp,2021.2.3,60.03372179235048,
left,go,1,0,1,0,7,0,42,0,711.4989941120148,None,1,0.585176944732666,711.4989941120148,None,712.1901919841766,None,713.1903760433197,713.5506601333618,713.1903760433197,713.5506601333618,712.1901919841766,None,712.1901919841766,None,712.1901919841766,None,1,True,489.8838996887207,1203.6468982696533,left,715.7730550765991,None,-1,-1,pilot1,icub,clamp,2021_Dec_20_1120,exp,2021.2.3,60.03372179235048,
left,go,1,0,1,0,7,1,43,0,716.2893400192261,None,1,0.600426197052002,716.2893400192261,None,717.0145471096039,None,718.0472540855408,718.3921480178833,718.0472540855408,718.3921480178833,717.0145471096039,None,717.0145471096039,None,717.0145471096039,None,1,True,613.6355400085449,1066.4772987365723,left,720.6001579761505,None,-1,-1,pilot1,icub,clamp,2021_Dec_20_1120,exp,2021.2.3,60.03372179235048,
left,go,1,0,1,0,7,2,44,0,721.1161119937897,None,1,0.6017918586730957,721.1161119937897,None,721.8414189815521,None,722.8712251186371,723.2240641117096,722.8712251186371,723.2240641117096,721.8414189815521,None,721.8414189815521,None,721.8414189815521,None,1,True,650.6361961364746,1016.7121887207031,left,725.4142899513245,None,-1,-1,pilot1,icub,clamp,2021_Dec_20_1120,exp,2021.2.3,60.03372179235048,
right,stop,1,0,1,0,7,3,45,5,725.9325499534607,None,1,0.6038680076599121,725.9325499534607,None,726.6601059436798,None,727.6906931400299,728.0404770374298,727.6906931400299,728.0404770374298,726.6601059436798,None,726.6601059436798,None,726.6601059436798,None,0,True,627.6087760925293,838.5510444641113,right,730.0426909923553,None,950,750,pilot1,icub,clamp,2021_Dec_20_1120,exp,2021.2.3,60.03372179235048,
right,go,1,0,1,0,7,4,46,4,730.556648015976,None,1,0.8199160099029541,730.556648015976,None,731.4712679386139,None,732.4996199607849,732.8365769386292,732.4996199607849,732.8365769386292,731.4712679386139,None,731.4712679386139,None,731.4712679386139,None,1,True,727.9019355773926,935.6324672698975,right,735.0266089439392,None,-1,-1,pilot1,icub,clamp,2021_Dec_20_1120,exp,2021.2.3,60.03372179235048,
left,go,1,0,1,0,7,5,47,1,735.5241420269012,None,1,0.3663918972015381,735.5241420269012,None,736.0045721530914,None,736.9999310970306,737.362368106842,736.9999310970306,737.362368106842,736.0045721530914,None,736.0045721530914,None,736.0045721530914,None,1,True,622.077226638794,853.961706161499,left,739.3691339492798,None,-1,-1,pilot1,icub,clamp,2021_Dec_20_1120,exp,2021.2.3,60.03372179235048,
right,stop,1,0,1,0,8,0,48,5,739.8674111366272,None,1,0.696087121963501,739.8674111366272,None,740.6539590358734,None,741.6487970352173,742.0017991065979,741.6487970352173,742.0017991065979,740.6539590358734,None,740.6539590358734,None,740.6539590358734,None,0,True,642.113208770752,822.0486640930176,right,744.0023109912872,None,950,700,pilot1,icub,clamp,2021_Dec_20_1120,exp,2021.2.3,60.03372179235048,
right,go,1,0,1,0,8,1,49,3,744.5276219844818,None,1,0.8917808532714844,744.5276219844818,None,745.4995949268341,None,746.4998121261597,746.8633871078491,746.4998121261597,746.8633871078491,745.4995949268341,None,745.4995949268341,None,745.4995949268341,None,1,True,715.9788608551025,796.7982292175293,right,748.9115519523621,None,-1,-1,pilot1,icub,clamp,2021_Dec_20_1120,exp,2021.2.3,60.03372179235048,
left,go,1,0,1,0,8,2,50,0,749.4139940738678,None,1,0.6236221790313721,749.4139940738678,None,750.1407790184021,None,751.1522891521454,751.501925945282,751.1522891521454,751.501925945282,750.1407790184021,None,750.1407790184021,None,750.1407790184021,None,1,True,641.6819095611572,1017.9848670959473,left,753.6864750385284,None,-1,-1,pilot1,icub,clamp,2021_Dec_20_1120,exp,2021.2.3,60.03372179235048,
left,go,1,0,1,0,8,3,51,1,754.1976311206818,None,1,0.6637938022613525,754.1976311206818,None,754.9843800067902,None,755.9775149822235,756.3292059898376,755.9775149822235,756.3292059898376,754.9843800067902,None,754.9843800067902,None,754.9843800067902,None,1,True,579.5423984527588,1112.093448638916,left,758.5772891044617,None,-1,-1,pilot1,icub,clamp,2021_Dec_20_1120,exp,2021.2.3,60.03372179235048,
right,stop,1,0,1,0,8,4,52,5,759.084233045578,None,1,0.6141119003295898,759.084233045578,None,759.813549041748,None,760.8243129253387,761.1890749931335,760.8243129253387,761.1890749931335,759.813549041748,None,759.813549041748,None,759.813549041748,None,0,True,921.5686321258545,719.8209762573242,right,763.3565759658813,None,950,650,pilot1,icub,clamp,2021_Dec_20_1120,exp,2021.2.3,60.03372179235048,
right,stop,1,0,1,0,8,5,53,5,763.8708159923553,None,1,0.9548389911651611,763.8708159923553,None,764.9061801433563,None,765.9145181179047,766.2744770050049,765.9145181179047,766.2744770050049,764.9061801433563,None,764.9061801433563,None,764.9061801433563,None,1,True,469.65885162353516,-1.0,-1,770.2569921016693,None,950,600,pilot1,icub,clamp,2021_Dec_20_1120,exp,2021.2.3,60.03372179235048,
left,go,1,0,1,0,9,0,54,1,770.7501881122589,None,1,0.7108619213104248,770.7501881122589,None,771.5467209815979,None,772.5275230407715,772.8870649337769,772.5275230407715,772.8870649337769,771.5467209815979,None,771.5467209815979,None,771.5467209815979,None,1,True,636.6574764251709,1013.0326747894287,left,775.091607093811,None,-1,-1,pilot1,icub,clamp,2021_Dec_20_1120,exp,2021.2.3,60.03372179235048,
right,go,1,0,1,0,9,1,55,4,775.6084699630737,None,1,0.5538649559020996,775.6084699630737,None,776.2718579769135,None,777.3078880310059,777.6652209758759,777.3078880310059,777.6652209758759,776.2718579769135,None,776.2718579769135,None,776.2718579769135,None,1,True,693.1536197662354,895.3952789306641,right,779.7722821235657,None,-1,-1,pilot1,icub,clamp,2021_Dec_20_1120,exp,2021.2.3,60.03372179235048,
right,go,1,0,1,0,9,2,56,4,780.2884650230408,None,1,0.6240499019622803,780.2884650230408,None,781.0190651416779,None,782.0203521251678,782.383260011673,782.0203521251678,782.383260011673,781.0190651416779,None,781.0190651416779,None,781.0190651416779,None,1,True,704.5114040374756,1032.6385498046875,right,784.6509840488434,None,-1,-1,pilot1,icub,clamp,2021_Dec_20_1120,exp,2021.2.3,60.03372179235048,
right,go,1,0,1,0,9,3,57,4,785.1534020900726,None,1,0.5447640419006348,785.1534020900726,None,785.8184750080109,None,786.8519370555878,787.2106220722198,786.8519370555878,787.2106220722198,785.8184750080109,None,785.8184750080109,None,785.8184750080109,None,1,True,510.0255012512207,1092.5939083099365,right,789.3202540874481,None,-1,-1,pilot1,icub,clamp,2021_Dec_20_1120,exp,2021.2.3,60.03372179235048,
right,go,1,0,1,0,9,4,58,4,789.8308730125427,None,1,0.8271200656890869,789.8308730125427,None,790.7433819770813,None,791.7672491073608,792.1188759803772,791.7672491073608,792.1188759803772,790.7433819770813,None,790.7433819770813,None,790.7433819770813,None,1,True,602.928638458252,1163.0423069000244,right,794.4089210033417,None,-1,-1,pilot1,icub,clamp,2021_Dec_20_1120,exp,2021.2.3,60.03372179235048,
right,go,1,0,1,0,9,5,59,4,794.9152500629425,None,1,0.5289030075073242,794.9152500629425,None,795.5763311386108,None,796.6134181022644,796.9611220359802,796.6134181022644,796.9611220359802,795.5763311386108,None,795.5763311386108,None,795.5763311386108,None,1,True,644.824743270874,1131.141185760498,right,799.2238841056824,None,-1,-1,pilot1,icub,clamp,2021_Dec_20_1120,exp,2021.2.3,60.03372179235048,
right,go,1,0,1,0,10,0,60,3,799.7307729721069,None,1,0.6236100196838379,799.7307729721069,None,800.460648059845,None,801.473384141922,801.8370440006256,801.473384141922,801.8370440006256,800.460648059845,None,800.460648059845,None,800.460648059845,None,1,True,439.5146369934082,1093.2905673980713,right,803.8992381095886,None,-1,-1,pilot1,icub,clamp,2021_Dec_20_1120,exp,2021.2.3,60.03372179235048,
right,go,1,0,1,0,10,1,61,4,804.4280860424042,None,1,0.5610570907592773,804.4280860424042,None,805.0944600105286,None,806.1121411323547,806.4711101055145,806.1121411323547,806.4711101055145,805.0944600105286,None,805.0944600105286,None,805.0944600105286,None,1,True,576.9567489624023,964.9753570556641,right,808.5327501296997,None,-1,-1,pilot1,icub,clamp,2021_Dec_20_1120,exp,2021.2.3,60.03372179235048,
left,stop,1,0,1,0,10,2,62,2,809.0458331108093,None,1,0.8155970573425293,809.0458331108093,None,809.96240401268,None,810.95654296875,811.303200006485,810.95654296875,811.303200006485,809.96240401268,None,809.96240401268,None,809.96240401268,None,0,True,498.52776527404785,977.3690700531006,left,813.3183450698853,None,950,650,pilot1,icub,clamp,2021_Dec_20_1120,exp,2021.2.3,60.03372179235048,
left,go,1,0,1,0,10,3,63,0,813.8321490287781,None,1,0.8479890823364258,813.8321490287781,None,814.8040390014648,None,815.8383071422577,816.1942069530487,815.8383071422577,816.1942069530487,814.8040390014648,None,814.8040390014648,None,814.8040390014648,None,1,True,381.6962242126465,1245.100736618042,left,818.3137710094452,None,-1,-1,pilot1,icub,clamp,2021_Dec_20_1120,exp,2021.2.3,60.03372179235048,
right,go,1,0,1,0,10,4,64,3,818.8132479190826,None,1,0.5169708728790283,818.8132479190826,None,819.4159650802612,None,820.4144649505615,820.7748870849609,820.4144649505615,820.7748870849609,819.4159650802612,None,819.4159650802612,None,819.4159650802612,None,1,True,795.8507537841797,1056.837797164917,right,823.1472251415253,None,-1,-1,pilot1,icub,clamp,2021_Dec_20_1120,exp,2021.2.3,60.03372179235048,
right,go,1,0,1,0,10,5,65,3,823.6647770404816,None,1,0.5374369621276855,823.6647770404816,None,824.3266360759735,None,825.320433139801,825.6732380390167,825.320433139801,825.6732380390167,824.3266360759735,None,824.3266360759735,None,824.3266360759735,None,1,True,533.4317684173584,1251.7387866973877,right,827.9845449924469,None,-1,-1,pilot1,icub,clamp,2021_Dec_20_1120,exp,2021.2.3,60.03372179235048,
right,stop,1,0,1,0,11,0,66,5,828.4965529441833,None,1,0.8766038417816162,828.4965529441833,None,829.4738380908966,None,830.4992380142212,830.8529860973358,830.4992380142212,830.8529860973358,829.4738380908966,None,829.4738380908966,None,829.4738380908966,None,1,True,399.4414806365967,-1.0,-1,834.7832520008087,None,900,650,pilot1,icub,clamp,2021_Dec_20_1120,exp,2021.2.3,60.03372179235048,
left,go,1,0,1,0,11,1,67,1,835.3147370815277,None,1,0.7661600112915039,835.3147370815277,None,836.173376083374,None,837.1498980522156,837.4968259334564,837.1498980522156,837.4968259334564,836.173376083374,None,836.173376083374,None,836.173376083374,None,1,True,52.930593490600586,1548.0878353118896,left,839.672877073288,None,-1,-1,pilot1,icub,clamp,2021_Dec_20_1120,exp,2021.2.3,60.03372179235048,
left,stop,1,0,1,0,11,2,68,2,840.1921401023865,None,1,0.47691798210144043,840.1921401023865,None,840.792268037796,None,841.7910559177399,842.1488239765167,841.7910559177399,842.1488239765167,840.792268037796,None,840.792268037796,None,840.792268037796,None,1,True,252.84194946289062,-1.0,-1,845.9457020759583,None,900,700,pilot1,icub,clamp,2021_Dec_20_1120,exp,2021.2.3,60.03372179235048,
left,stop,1,0,1,0,11,3,69,2,846.4769639968872,None,1,0.6927309036254883,846.4769639968872,None,847.2739191055298,None,848.2525680065155,848.5866229534149,848.2525680065155,848.5866229534149,847.2739191055298,None,847.2739191055298,None,847.2739191055298,None,1,True,372.79534339904785,-1.0,-1,852.5317230224609,None,950,700,pilot1,icub,clamp,2021_Dec_20_1120,exp,2021.2.3,60.03372179235048,
right,go,1,0,1,0,11,4,70,3,853.0633749961853,None,1,0.3632791042327881,853.0633749961853,None,853.5521719455719,None,854.5624001026154,854.9072749614716,854.5624001026154,854.9072749614716,853.5521719455719,None,853.5521719455719,None,853.5521719455719,None,1,True,375.1826286315918,1334.670066833496,right,857.1377620697021,None,-1,-1,pilot1,icub,clamp,2021_Dec_20_1120,exp,2021.2.3,60.03372179235048,
right,stop,1,0,1,0,11,5,71,5,857.6432950496674,None,1,0.4738588333129883,857.6432950496674,None,858.2458169460297,None,859.2807259559631,859.6396391391754,859.2807259559631,859.6396391391754,858.2458169460297,None,858.2458169460297,None,858.2458169460297,None,1,True,561.3551139831543,-1.0,-1,863.6887850761414,None,1000,700,pilot1,icub,clamp,2021_Dec_20_1120,exp,2021.2.3,60.03372179235048,
left,stop,1,0,1,0,12,0,72,2,864.2199151515961,None,1,0.5648460388183594,864.2199151515961,None,864.8929340839386,None,865.8738510608673,866.2325639724731,865.8738510608673,866.2325639724731,864.8929340839386,None,864.8929340839386,None,864.8929340839386,None,0,True,642.4539089202881,1017.2886848449707,left,868.4276399612427,None,1000,750,pilot1,icub,clamp,2021_Dec_20_1120,exp,2021.2.3,60.03372179235048,
right,go,1,0,1,0,12,1,73,3,868.9297389984131,None,1,0.7943580150604248,868.9297389984131,None,869.8438410758972,None,870.8420541286469,871.1882791519165,870.8420541286469,871.1882791519165,869.8438410758972,None,869.8438410758972,None,869.8438410758972,None,1,True,755.9604644775391,1360.682487487793,right,873.8717300891876,None,-1,-1,pilot1,icub,clamp,2021_Dec_20_1120,exp,2021.2.3,60.03372179235048,
right,stop,1,0,1,0,12,2,74,5,874.3810360431671,None,1,0.5093648433685303,874.3810360431671,None,874.9850900173187,None,875.9756939411163,876.3210220336914,875.9756939411163,876.3210220336914,874.9850900173187,None,874.9850900173187,None,874.9850900173187,None,1,True,584.7296714782715,-1.0,-1,880.4761469364166,None,950,750,pilot1,icub,clamp,2021_Dec_20_1120,exp,2021.2.3,60.03372179235048,
left,go,1,0,1,0,12,3,75,1,881.0079920291901,None,1,0.5466489791870117,881.0079920291901,None,881.6813809871674,None,882.660402059555,883.0201210975647,882.660402059555,883.0201210975647,881.6813809871674,None,881.6813809871674,None,881.6813809871674,None,1,True,811.6371631622314,1117.4094676971436,left,885.507740020752,None,-1,-1,pilot1,icub,clamp,2021_Dec_20_1120,exp,2021.2.3,60.03372179235048,
left,go,1,0,1,0,12,4,76,1,886.0390820503235,None,1,0.46303319931030273,886.0390820503235,None,886.6307301521301,None,887.6489460468292,888.0105741024017,887.6489460468292,888.0105741024017,886.6307301521301,None,886.6307301521301,None,886.6307301521301,None,1,True,694.2398548126221,1064.7292137145996,left,890.2993779182434,None,-1,-1,pilot1,icub,clamp,2021_Dec_20_1120,exp,2021.2.3,60.03372179235048,
left,go,1,0,1,0,12,5,77,1,890.8103330135345,None,1,0.5309929847717285,890.8103330135345,None,891.4737210273743,None,892.4685549736023,892.7939910888672,892.4685549736023,892.7939910888672,891.4737210273743,None,891.4737210273743,None,891.4737210273743,None,1,True,566.6952133178711,1047.5332736968994,left,894.9747431278229,None,-1,-1,pilot1,icub,clamp,2021_Dec_20_1120,exp,2021.2.3,60.03372179235048,
right,go,2,0,2,0,0,0,0,4,911.2764430046082,None,1,8.00559401512146,911.2764430046082,None,919.3823239803314,None,920.4161970615387,920.7739279270172,920.4161970615387,920.7739279270172,919.3823239803314,None,919.3823239803314,None,919.3823239803314,None,1,True,461.3516330718994,670.5117225646973,right,922.4015121459961,None,-1,-1,pilot1,icub,clamp,2021_Dec_20_1120,exp,2021.2.3,60.03372179235048,
right,go,2,0,2,0,0,1,1,4,922.9099631309509,None,1,0.7059969902038574,922.9099631309509,None,923.7013320922852,None,924.7033550739288,925.0545449256897,924.7033550739288,925.0545449256897,923.7013320922852,None,923.7013320922852,None,923.7013320922852,None,1,True,665.9717559814453,789.5369529724121,right,927.0518231391907,None,-1,-1,pilot1,icub,clamp,2021_Dec_20_1120,exp,2021.2.3,60.03372179235048,
right,go,2,0,2,0,0,2,2,4,927.5651910305023,None,1,0.5827548503875732,927.5651910305023,None,928.2333860397339,None,929.238361120224,929.593740940094,929.238361120224,929.593740940094,928.2333860397339,None,928.2333860397339,None,928.2333860397339,None,1,True,632.6987743377686,912.2178554534912,right,931.6694800853729,None,-1,-1,pilot1,icub,clamp,2021_Dec_20_1120,exp,2021.2.3,60.03372179235048,
right,stop,2,0,2,0,0,3,3,5,932.1787860393524,None,1,0.479888916015625,932.1787860393524,None,932.78289103508,None,933.7945749759674,934.1571910381317,933.7945749759674,934.1571910381317,932.78289103508,None,932.78289103508,None,932.78289103508,None,0,True,575.3793716430664,876.0886192321777,right,936.1332249641418,None,950,800,pilot1,icub,clamp,2021_Dec_20_1120,exp,2021.2.3,60.03372179235048,
right,stop,2,0,2,0,0,4,4,5,936.6502549648285,None,1,2.3879120349884033,936.6502549648285,None,939.1708669662476,None,940.1994421482086,940.5437989234924,940.1994421482086,940.5437989234924,939.1708669662476,None,939.1708669662476,None,939.1708669662476,None,1,True,468.2137966156006,-1.0,-1,944.5391061306,None,950,750,pilot1,icub,clamp,2021_Dec_20_1120,exp,2021.2.3,60.03372179235048,
left,stop,2,0,2,0,0,5,5,2,945.0332140922546,None,1,0.7190420627593994,945.0332140922546,None,945.8914680480957,None,946.8734540939331,947.2395970821381,946.8734540939331,947.2395970821381,945.8914680480957,None,945.8914680480957,None,945.8914680480957,None,0,True,738.9850616455078,912.9776954650879,left,949.4544310569763,None,950,800,pilot1,icub,clamp,2021_Dec_20_1120,exp,2021.2.3,60.03372179235048,
right,go,2,0,2,0,1,0,6,4,949.9703810214996,None,1,0.8462090492248535,949.9703810214996,None,950.9406530857086,None,951.9684810638428,952.3272941112518,951.9684810638428,952.3272941112518,950.9406530857086,None,950.9406530857086,None,950.9406530857086,None,1,True,648.165225982666,1188.936710357666,right,954.6596579551697,None,-1,-1,pilot1,icub,clamp,2021_Dec_20_1120,exp,2021.2.3,60.03372179235048,
left,go,2,0,2,0,1,1,7,1,955.1783471107483,None,1,0.4882049560546875,955.1783471107483,None,955.7800459861755,None,956.7830431461334,957.130558013916,956.7830431461334,957.130558013916,955.7800459861755,None,955.7800459861755,None,955.7800459861755,None,1,True,853.4560203552246,1231.367588043213,left,959.7438371181488,None,-1,-1,pilot1,icub,clamp,2021_Dec_20_1120,exp,2021.2.3,60.03372179235048,
left,go,2,0,2,0,1,2,8,1,960.2679741382599,None,1,0.5097188949584961,960.2679741382599,None,960.8735060691833,None,961.8821840286255,962.2391340732574,961.8821840286255,962.2391340732574,960.8735060691833,None,960.8735060691833,None,960.8735060691833,None,1,True,809.2379570007324,1169.6324348449707,left,964.7502210140228,None,-1,-1,pilot1,icub,clamp,2021_Dec_20_1120,exp,2021.2.3,60.03372179235048,
right,go,2,0,2,0,1,3,9,4,965.2687270641327,None,1,0.4128289222717285,965.2687270641327,None,965.7966740131378,None,966.8035180568695,967.158942937851,966.8035180568695,967.158942937851,965.7966740131378,None,965.7966740131378,None,965.7966740131378,None,1,True,598.4952449798584,1085.3562355041504,right,969.3722670078278,None,-1,-1,pilot1,icub,clamp,2021_Dec_20_1120,exp,2021.2.3,60.03372179235048,
right,go,2,0,2,0,1,4,10,4,969.8903279304504,None,1,0.5930218696594238,969.8903279304504,None,970.611083984375,None,971.6295440196991,971.9785389900208,971.6295440196991,971.9785389900208,970.611083984375,None,970.611083984375,None,970.611083984375,None,1,True,523.7557888031006,1092.332124710083,right,974.1065230369568,None,-1,-1,pilot1,icub,clamp,2021_Dec_20_1120,exp,2021.2.3,60.03372179235048,
left,go,2,0,2,0,1,5,11,0,974.6410980224609,None,1,0.5525658130645752,974.6410980224609,None,975.3094880580902,None,976.3153800964355,976.6694049835205,976.3153800964355,976.6694049835205,975.3094880580902,None,975.3094880580902,None,975.3094880580902,None,1,True,658.9443683624268,977.9024124145508,left,978.8269081115723,None,-1,-1,pilot1,icub,clamp,2021_Dec_20_1120,exp,2021.2.3,60.03372179235048,
left,stop,2,0,2,0,2,0,12,2,979.3532071113586,None,1,0.6201341152191162,979.3532071113586,None,980.0774660110474,None,981.0927309989929,981.448657989502,981.0927309989929,981.448657989502,980.0774660110474,None,980.0774660110474,None,980.0774660110474,None,0,True,630.2852630615234,955.1277160644531,left,983.5664880275726,None,900,800,pilot1,icub,clamp,2021_Dec_20_1120,exp,2021.2.3,60.03372179235048,
right,go,2,0,2,0,2,1,13,3,984.0810990333557,None,1,1.0183048248291016,984.0810990333557,None,985.1799440383911,None,986.1868140697479,986.5445461273193,986.1868140697479,986.5445461273193,985.1799440383911,None,985.1799440383911,None,985.1799440383911,None,1,True,419.9955463409424,1099.7848510742188,right,988.5959310531616,None,-1,-1,pilot1,icub,clamp,2021_Dec_20_1120,exp,2021.2.3,60.03372179235048,
right,go,2,0,2,0,2,2,14,4,989.1239640712738,None,1,0.43948912620544434,989.1239640712738,None,989.6657710075378,None,990.6689989566803,991.0178470611572,990.6689989566803,991.0178470611572,989.6657710075378,None,989.6657710075378,None,989.6657710075378,None,1,True,539.3221378326416,1181.4019680023193,right,993.2602889537811,None,-1,-1,pilot1,icub,clamp,2021_Dec_20_1120,exp,2021.2.3,60.03372179235048,
left,go,2,0,2,0,2,3,15,1,993.7737939357758,None,1,0.36763811111450195,993.7737939357758,None,994.256679058075,None,995.2535350322723,995.6126980781555,995.2535350322723,995.6126980781555,994.256679058075,None,994.256679058075,None,994.256679058075,None,1,True,432.4514865875244,927.1857738494873,left,997.5041360855103,None,-1,-1,pilot1,icub,clamp,2021_Dec_20_1120,exp,2021.2.3,60.03372179235048,
right,go,2,0,2,0,2,4,16,3,998.0225160121918,None,1,0.37506794929504395,998.0225160121918,None,998.5022449493408,None,999.5257489681244,999.8713619709015,999.5257489681244,999.8713619709015,998.5022449493408,None,998.5022449493408,None,998.5022449493408,None,1,True,561.2733364105225,965.508222579956,right,1001.9284229278564,None,-1,-1,pilot1,icub,clamp,2021_Dec_20_1120,exp,2021.2.3,60.03372179235048,
right,go,2,0,2,0,2,5,17,3,1002.4613840579987,None,1,0.4122738838195801,1002.4613840579987,None,1003.001876115799,None,1004.0014719963074,1004.3543729782104,1004.0014719963074,1004.3543729782104,1003.001876115799,None,1003.001876115799,None,1003.001876115799,None,1,True,465.5883312225342,1016.5479183197021,right,1006.388090133667,None,-1,-1,pilot1,icub,clamp,2021_Dec_20_1120,exp,2021.2.3,60.03372179235048,
left,go,2,0,2,0,3,0,18,1,1006.8991980552673,None,1,0.3718879222869873,1006.8991980552673,None,1007.382700920105,None,1008.3991000652313,1008.7431330680847,1008.3991000652313,1008.7431330680847,1007.382700920105,None,1007.382700920105,None,1007.382700920105,None,1,True,419.07262802124023,898.6010551452637,left,1010.5965709686279,None,-1,-1,pilot1,icub,clamp,2021_Dec_20_1120,exp,2021.2.3,60.03372179235048,
right,stop,2,0,2,0,3,1,19,5,1011.1227641105652,None,1,0.5305631160736084,1011.1227641105652,None,1011.7286410331726,None,1012.7203829288483,1013.0744030475616,1012.7203829288483,1013.0744030475616,1011.7286410331726,None,1011.7286410331726,None,1011.7286410331726,None,0,True,485.3661060333252,929.2869567871094,right,1015.026435136795,None,850,800,pilot1,icub,clamp,2021_Dec_20_1120,exp,2021.2.3,60.03372179235048,
left,go,2,0,2,0,3,2,20,0,1015.5245730876923,None,1,0.8056840896606445,1015.5245730876923,None,1016.4360439777374,None,1017.4655439853668,1017.819962978363,1017.4655439853668,1017.819962978363,1016.4360439777374,None,1016.4360439777374,None,1016.4360439777374,None,1,True,529.731273651123,892.1637535095215,left,1019.7362620830536,None,-1,-1,pilot1,icub,clamp,2021_Dec_20_1120,exp,2021.2.3,60.03372179235048,
left,go,2,0,2,0,3,3,21,1,1020.2368140220642,None,1,0.5767309665679932,1020.2368140220642,None,1020.9044930934906,None,1021.8971860408783,1022.2360110282898,1021.8971860408783,1022.2360110282898,1020.9044930934906,None,1020.9044930934906,None,1020.9044930934906,None,1,True,527.674674987793,1204.7617435455322,left,1024.5398190021515,None,-1,-1,pilot1,icub,clamp,2021_Dec_20_1120,exp,2021.2.3,60.03372179235048,
left,go,2,0,2,0,3,4,22,0,1025.0604131221771,None,1,0.5072231292724609,1025.0604131221771,None,1025.6685500144958,None,1026.6981010437012,1027.0404870510101,1026.6981010437012,1027.0404870510101,1025.6685500144958,None,1025.6685500144958,None,1025.6685500144958,None,1,True,526.1566638946533,1007.0562362670898,left,1029.0872030258179,None,-1,-1,pilot1,icub,clamp,2021_Dec_20_1120,exp,2021.2.3,60.03372179235048,
right,go,2,0,2,0,3,5,23,4,1029.6018199920654,None,1,0.4588029384613037,1029.6018199920654,None,1030.1461849212646,None,1031.1650590896606,1031.5251059532166,1031.1650590896606,1031.5251059532166,1030.1461849212646,None,1030.1461849212646,None,1030.1461849212646,None,1,True,491.75167083740234,1181.0262203216553,right,1033.686991930008,None,-1,-1,pilot1,icub,clamp,2021_Dec_20_1120,exp,2021.2.3,60.03372179235048,
left,go,2,0,2,0,4,0,24,0,1034.2207260131836,None,1,0.374708890914917,1034.2207260131836,None,1034.701280117035,None,1035.7036740779877,1036.061028957367,1035.7036740779877,1036.061028957367,1034.701280117035,None,1034.701280117035,None,1034.701280117035,None,1,True,627.0387172698975,1025.071620941162,left,1038.2384541034698,None,-1,-1,pilot1,icub,clamp,2021_Dec_20_1120,exp,2021.2.3,60.03372179235048,
right,go,2,0,2,0,4,1,25,3,1038.7519600391388,None,1,0.552452802658081,1038.7519600391388,None,1039.4161350727081,None,1040.416505098343,1040.7694890499115,1040.416505098343,1040.7694890499115,1039.4161350727081,None,1039.4161350727081,None,1039.4161350727081,None,1,True,597.9428291320801,939.1665458679199,right,1042.8393671512604,None,-1,-1,pilot1,icub,clamp,2021_Dec_20_1120,exp,2021.2.3,60.03372179235048,
left,go,2,0,2,0,4,2,26,0,1043.3569021224976,None,1,0.4806849956512451,1043.3569021224976,None,1043.958440065384,None,1044.9629290103912,1045.290964126587,1044.9629290103912,1045.290964126587,1043.958440065384,None,1043.958440065384,None,1043.958440065384,None,1,True,536.7496013641357,940.8590793609619,left,1047.3327119350433,None,-1,-1,pilot1,icub,clamp,2021_Dec_20_1120,exp,2021.2.3,60.03372179235048,
left,go,2,0,2,0,4,3,27,1,1047.8397040367126,None,1,0.42326998710632324,1047.8397040367126,None,1048.3823599815369,None,1049.4049820899963,1049.7739000320435,1049.4049820899963,1049.7739000320435,1048.3823599815369,None,1048.3823599815369,None,1048.3823599815369,None,1,True,271.0280418395996,992.4812316894531,left,1051.5176610946655,None,-1,-1,pilot1,icub,clamp,2021_Dec_20_1120,exp,2021.2.3,60.03372179235048,
right,stop,2,0,2,0,4,4,28,5,1052.0333459377289,None,1,0.5200059413909912,1052.0333459377289,None,1052.638972043991,None,1053.6340870857239,1053.993077993393,1053.6340870857239,1053.993077993393,1052.638972043991,None,1052.638972043991,None,1052.638972043991,None,1,True,542.2818660736084,-1.0,-1,1058.0633671283722,None,850,750,pilot1,icub,clamp,2021_Dec_20_1120,exp,2021.2.3,60.03372179235048,
left,stop,2,0,2,0,4,5,29,2,1058.5954051017761,None,1,0.544417142868042,1058.5954051017761,None,1059.2696781158447,None,1060.258810043335,1060.6178159713745,1060.258810043335,1060.6178159713745,1059.2696781158447,None,1059.2696781158447,None,1059.2696781158447,None,0,True,415.4036045074463,1002.3193359375,left,1062.5698029994965,None,850,800,pilot1,icub,clamp,2021_Dec_20_1120,exp,2021.2.3,60.03372179235048,
left,stop,2,0,2,0,5,0,30,2,1063.0702540874481,None,1,0.6728570461273193,1063.0702540874481,None,1063.8566789627075,None,1064.866070985794,1065.216138124466,1064.866070985794,1065.216138124466,1063.8566789627075,None,1063.8566789627075,None,1063.8566789627075,None,1,True,367.9156303405762,-1.0,-1,1069.1210889816284,None,800,800,pilot1,icub,clamp,2021_Dec_20_1120,exp,2021.2.3,60.03372179235048,
left,go,2,0,2,0,5,1,31,0,1069.6156539916992,None,1,0.754051923751831,1069.6156539916992,None,1070.4742939472198,None,1071.4575469493866,1071.8182880878448,1071.4575469493866,1071.8182880878448,1070.4742939472198,None,1070.4742939472198,None,1070.4742939472198,None,1,True,375.89144706726074,814.3603801727295,left,1073.5403900146484,None,-1,-1,pilot1,icub,clamp,2021_Dec_20_1120,exp,2021.2.3,60.03372179235048,
right,go,2,0,2,0,5,2,32,3,1074.061844110489,None,1,1.0243198871612549,1074.061844110489,None,1075.2194590568542,None,1076.2314040660858,1076.5944430828094,1076.2314040660858,1076.5944430828094,1075.2194590568542,None,1075.2194590568542,None,1075.2194590568542,None,1,True,502.12764739990234,1141.6444778442383,right,1078.769758939743,None,-1,-1,pilot1,icub,clamp,2021_Dec_20_1120,exp,2021.2.3,60.03372179235048,
right,go,2,0,2,0,5,3,33,3,1079.2879800796509,None,1,0.48807501792907715,1079.2879800796509,None,1079.8910341262817,None,1080.9050481319427,1081.275130033493,1080.9050481319427,1081.275130033493,1079.8910341262817,None,1079.8910341262817,None,1079.8910341262817,None,1,True,590.2011394500732,1090.5978679656982,right,1083.4447219371796,None,-1,-1,pilot1,icub,clamp,2021_Dec_20_1120,exp,2021.2.3,60.03372179235048,
right,go,2,0,2,0,5,4,34,3,1083.9622571468353,None,1,0.7217931747436523,1083.9622571468353,None,1084.8119640350342,None,1085.8389189243317,1086.1880819797516,1085.8389189243317,1086.1880819797516,1084.8119640350342,None,1084.8119640350342,None,1084.8119640350342,None,1,True,727.8637886047363,1040.6920909881592,right,1088.4864039421082,None,-1,-1,pilot1,icub,clamp,2021_Dec_20_1120,exp,2021.2.3,60.03372179235048,
left,go,2,0,2,0,5,5,35,1,1089.023297071457,None,1,0.47075891494750977,1089.023297071457,None,1089.5696260929108,None,1090.5765099525452,1090.9202089309692,1090.5765099525452,1090.9202089309692,1089.5696260929108,None,1089.5696260929108,None,1089.5696260929108,None,1,True,642.1787738800049,973.7412929534912,left,1093.0631880760193,None,-1,-1,pilot1,icub,clamp,2021_Dec_20_1120,exp,2021.2.3,60.03372179235048,
left,stop,2,0,2,0,6,0,36,2,1093.5629470348358,None,1,0.5941359996795654,1093.5629470348358,None,1094.280471086502,None,1095.2866201400757,1095.6209330558777,1095.2866201400757,1095.6209330558777,1094.280471086502,None,1094.280471086502,None,1094.280471086502,None,0,True,760.1985931396484,952.6791572570801,left,1097.8622379302979,None,850,800,pilot1,icub,clamp,2021_Dec_20_1120,exp,2021.2.3,60.03372179235048,
left,go,2,0,2,0,6,1,37,1,1098.3837881088257,None,1,0.728410005569458,1098.3837881088257,None,1099.236002922058,None,1100.266014099121,1100.6107430458069,1100.266014099121,1100.6107430458069,1099.236002922058,None,1099.236002922058,None,1099.236002922058,None,1,True,648.3445167541504,1262.544870376587,left,1103.0418801307678,None,-1,-1,pilot1,icub,clamp,2021_Dec_20_1120,exp,2021.2.3,60.03372179235048,
left,go,2,0,2,0,6,2,38,0,1103.560464143753,None,1,0.3975691795349121,1103.560464143753,None,1104.0859220027924,None,1105.0864391326904,1105.44828414917,1105.0864391326904,1105.44828414917,1104.0859220027924,None,1104.0859220027924,None,1104.0859220027924,None,1,True,285.0604057312012,1136.8205547332764,left,1107.3794779777527,None,-1,-1,pilot1,icub,clamp,2021_Dec_20_1120,exp,2021.2.3,60.03372179235048,
left,stop,2,0,2,0,6,3,39,2,1107.8900151252747,None,1,0.41094207763671875,1107.8900151252747,None,1108.4287979602814,None,1109.4316251277924,1109.788661956787,1109.4316251277924,1109.788661956787,1108.4287979602814,None,1108.4287979602814,None,1108.4287979602814,None,1,True,393.6891555786133,-1.0,-1,1113.7000350952148,None,800,800,pilot1,icub,clamp,2021_Dec_20_1120,exp,2021.2.3,60.03372179235048,
right,go,2,0,2,0,6,4,40,3,1114.231742143631,None,1,1.4047858715057373,1114.231742143631,None,1115.7743549346924,None,1116.7874569892883,1117.1454219818115,1116.7874569892883,1117.1454219818115,1115.7743549346924,None,1115.7743549346924,None,1115.7743549346924,None,1,True,486.0861301422119,808.9468479156494,right,1118.9325449466705,None,-1,-1,pilot1,icub,clamp,2021_Dec_20_1120,exp,2021.2.3,60.03372179235048,
right,go,2,0,2,0,6,5,41,4,1119.4676251411438,None,1,0.32230091094970703,1119.4676251411438,None,1119.8903279304504,None,1120.9246399402618,1121.2753541469574,1120.9246399402618,1121.2753541469574,1119.8903279304504,None,1119.8903279304504,None,1119.8903279304504,None,1,True,429.60309982299805,1051.1503219604492,right,1123.2757079601288,None,-1,-1,pilot1,icub,clamp,2021_Dec_20_1120,exp,2021.2.3,60.03372179235048,
right,go,2,0,2,0,7,0,42,4,1123.7745349407196,None,1,0.45656704902648926,1123.7745349407196,None,1124.3167340755463,None,1125.3259160518646,1125.6716921329498,1125.3259160518646,1125.6716921329498,1124.3167340755463,None,1124.3167340755463,None,1124.3167340755463,None,1,True,391.82209968566895,1150.1452922821045,right,1127.7347271442413,None,-1,-1,pilot1,icub,clamp,2021_Dec_20_1120,exp,2021.2.3,60.03372179235048,
left,stop,2,0,2,0,7,1,43,2,1128.243124961853,None,1,0.4197521209716797,1128.243124961853,None,1128.786653995514,None,1129.8033759593964,1130.155648946762,1129.8033759593964,1130.155648946762,1128.786653995514,None,1128.786653995514,None,1128.786653995514,None,0,True,396.8088626861572,946.148157119751,left,1132.0305700302124,None,850,800,pilot1,icub,clamp,2021_Dec_20_1120,exp,2021.2.3,60.03372179235048,
left,stop,2,0,2,0,7,2,44,2,1132.5343940258026,None,1,0.6388339996337891,1132.5343940258026,None,1133.2637169361115,None,1134.2627799510956,1134.6067371368408,1134.2627799510956,1134.6067371368408,1133.2637169361115,None,1133.2637169361115,None,1133.2637169361115,None,1,True,498.1105327606201,-1.0,-1,1138.6606249809265,None,800,800,pilot1,icub,clamp,2021_Dec_20_1120,exp,2021.2.3,60.03372179235048,
right,go,2,0,2,0,7,3,45,3,1139.1664321422577,None,1,0.5330820083618164,1139.1664321422577,None,1139.7782790660858,None,1140.7600860595703,1141.1134700775146,1140.7600860595703,1141.1134700775146,1139.7782790660858,None,1139.7782790660858,None,1139.7782790660858,None,1,True,391.79039001464844,1328.9079666137695,right,1143.3683650493622,None,-1,-1,pilot1,icub,clamp,2021_Dec_20_1120,exp,2021.2.3,60.03372179235048,
right,go,2,0,2,0,7,4,46,4,1143.8725340366364,None,1,0.6041390895843506,1143.8725340366364,None,1144.599839925766,None,1145.6000730991364,1145.9437799453735,1145.6000730991364,1145.9437799453735,1144.599839925766,None,1144.599839925766,None,1144.599839925766,None,1,True,481.1699390411377,1279.9153327941895,right,1148.2531089782715,None,-1,-1,pilot1,icub,clamp,2021_Dec_20_1120,exp,2021.2.3,60.03372179235048,
left,go,2,0,2,0,7,5,47,0,1148.7665209770203,None,1,0.3904731273651123,1148.7665209770203,None,1149.247635126114,None,1150.2653639316559,1150.6322491168976,1150.2653639316559,1150.6322491168976,1149.247635126114,None,1149.247635126114,None,1149.247635126114,None,1,True,336.6129398345947,1208.9409828186035,left,1152.6662819385529,None,-1,-1,pilot1,icub,clamp,2021_Dec_20_1120,exp,2021.2.3,60.03372179235048,
left,go,2,0,2,0,8,0,48,0,1153.1802470684052,None,1,0.5474720001220703,1153.1802470684052,None,1153.847548007965,None,1154.8507421016693,1155.197077035904,1154.8507421016693,1155.197077035904,1153.847548007965,None,1153.847548007965,None,1153.847548007965,None,1,True,557.389497756958,1155.6675434112549,left,1157.4695630073547,None,-1,-1,pilot1,icub,clamp,2021_Dec_20_1120,exp,2021.2.3,60.03372179235048,
left,go,2,0,2,0,8,1,49,1,1157.9736189842224,None,1,0.4467170238494873,1157.9736189842224,None,1158.5158219337463,None,1159.5153739452362,1159.8552250862122,1159.5153739452362,1159.8552250862122,1158.5158219337463,None,1158.5158219337463,None,1158.5158219337463,None,1,True,493.457555770874,1057.3432445526123,left,1161.9395730495453,None,-1,-1,pilot1,icub,clamp,2021_Dec_20_1120,exp,2021.2.3,60.03372179235048,
right,go,2,0,2,0,8,2,50,3,1162.449716091156,None,1,0.5468978881835938,1162.449716091156,None,1163.1163589954376,None,1164.1215291023254,1164.475063085556,1164.1215291023254,1164.475063085556,1163.1163589954376,None,1163.1163589954376,None,1163.1163589954376,None,1,True,489.1321659088135,1055.3946495056152,right,1166.5502181053162,None,-1,-1,pilot1,icub,clamp,2021_Dec_20_1120,exp,2021.2.3,60.03372179235048,
left,go,2,0,2,0,8,3,51,1,1167.0677819252014,None,1,0.7138519287109375,1167.0677819252014,None,1167.8571000099182,None,1168.8777070045471,1169.2029120922089,1168.8777070045471,1169.2029120922089,1167.8571000099182,None,1167.8571000099182,None,1167.8571000099182,None,1,True,456.0999870300293,992.1355247497559,left,1171.1964750289917,None,-1,-1,pilot1,icub,clamp,2021_Dec_20_1120,exp,2021.2.3,60.03372179235048,
left,go,2,0,2,0,8,4,52,0,1171.7001190185547,None,1,0.5564529895782471,1171.7001190185547,None,1172.363203048706,None,1173.3702111244202,1173.7282259464264,1173.3702111244202,1173.7282259464264,1172.363203048706,None,1172.363203048706,None,1172.363203048706,None,1,True,573.1716156005859,1017.268180847168,left,1175.8478960990906,None,-1,-1,pilot1,icub,clamp,2021_Dec_20_1120,exp,2021.2.3,60.03372179235048,
right,go,2,0,2,0,8,5,53,3,1176.3653230667114,None,1,0.34053611755371094,1176.3653230667114,None,1176.7863380908966,None,1177.789263010025,1178.1438460350037,1177.789263010025,1178.1438460350037,1176.7863380908966,None,1176.7863380908966,None,1176.7863380908966,None,1,True,389.8320198059082,986.687183380127,right,1180.0459461212158,None,-1,-1,pilot1,icub,clamp,2021_Dec_20_1120,exp,2021.2.3,60.03372179235048,
right,stop,2,0,2,0,9,0,54,5,1180.565668106079,None,1,0.5027940273284912,1180.565668106079,None,1181.13769698143,None,1182.158045053482,1182.5242171287537,1182.158045053482,1182.5242171287537,1181.13769698143,None,1181.13769698143,None,1181.13769698143,None,1,True,339.2643928527832,-1.0,-1,1186.3518640995026,None,850,800,pilot1,icub,clamp,2021_Dec_20_1120,exp,2021.2.3,60.03372179235048,
right,stop,2,0,2,0,9,1,55,5,1186.8845570087433,None,1,0.43664097785949707,1186.8845570087433,None,1187.4354259967804,None,1188.4148790836334,1188.7611889839172,1188.4148790836334,1188.7611889839172,1187.4354259967804,None,1187.4354259967804,None,1187.4354259967804,None,0,True,452.1453380584717,907.8578948974609,right,1190.7007219791412,None,850,850,pilot1,icub,clamp,2021_Dec_20_1120,exp,2021.2.3,60.03372179235048,
right,stop,2,0,2,0,9,2,56,5,1191.2041170597076,None,1,0.7486369609832764,1191.2041170597076,None,1192.0537021160126,None,1193.089210987091,1193.431692123413,1193.089210987091,1193.431692123413,1192.0537021160126,None,1192.0537021160126,None,1192.0537021160126,None,1,True,422.2862720489502,-1.0,-1,1197.3729150295258,None,850,800,pilot1,icub,clamp,2021_Dec_20_1120,exp,2021.2.3,60.03372179235048,
left,stop,2,0,2,0,9,3,57,2,1197.8663201332092,None,1,0.47886085510253906,1197.8663201332092,None,1198.4778599739075,None,1199.4550709724426,1199.810406923294,1199.4550709724426,1199.810406923294,1198.4778599739075,None,1198.4778599739075,None,1198.4778599739075,None,0,True,471.8441963195801,950.5558013916016,left,1201.793673992157,None,850,850,pilot1,icub,clamp,2021_Dec_20_1120,exp,2021.2.3,60.03372179235048,
right,go,2,0,2,0,9,4,58,3,1202.3041460514069,None,1,1.6982431411743164,1202.3041460514069,None,1204.0827701091766,None,1205.0803921222687,1205.4456191062927,1205.0803921222687,1205.4456191062927,1204.0827701091766,None,1204.0827701091766,None,1204.0827701091766,None,1,True,633.1002712249756,1271.1448669433594,right,1207.8850691318512,None,-1,-1,pilot1,icub,clamp,2021_Dec_20_1120,exp,2021.2.3,60.03372179235048,
right,stop,2,0,2,0,9,5,59,5,1208.4158549308777,None,1,0.5666940212249756,1208.4158549308777,None,1209.0836219787598,None,1210.1040489673615,1210.4550890922546,1210.1040489673615,1210.4550890922546,1209.0836219787598,None,1209.0836219787598,None,1209.0836219787598,None,1,True,307.2338104248047,-1.0,-1,1214.2920770645142,None,800,850,pilot1,icub,clamp,2021_Dec_20_1120,exp,2021.2.3,60.03372179235048,
right,stop,2,0,2,0,10,0,60,5,1214.8240160942078,None,1,0.42404699325561523,1214.8240160942078,None,1215.3735749721527,None,1216.3546290397644,1216.7146451473236,1216.3546290397644,1216.7146451473236,1215.3735749721527,None,1215.3735749721527,None,1215.3735749721527,None,1,True,282.19127655029297,-1.0,-1,1220.5551509857178,None,800,900,pilot1,icub,clamp,2021_Dec_20_1120,exp,2021.2.3,60.03372179235048,
left,stop,2,0,2,0,10,1,61,2,1221.0874531269073,None,1,0.9695580005645752,1221.0874531269073,None,1222.1933000087738,None,1223.1771879196167,1223.5359239578247,1223.1771879196167,1223.5359239578247,1222.1933000087738,None,1222.1933000087738,None,1222.1933000087738,None,1,True,276.6437530517578,-1.0,-1,1227.3727099895477,None,800,950,pilot1,icub,clamp,2021_Dec_20_1120,exp,2021.2.3,60.03372179235048,
left,stop,2,0,2,0,10,2,62,2,1227.904289007187,None,1,0.6667439937591553,1227.904289007187,None,1228.700914144516,None,1229.6829390525818,1230.038213968277,1229.6829390525818,1230.038213968277,1228.700914144516,None,1228.700914144516,None,1228.700914144516,None,1,True,401.7987251281738,-1.0,-1,1233.9924659729004,None,850,950,pilot1,icub,clamp,2021_Dec_20_1120,exp,2021.2.3,60.03372179235048,
left,go,2,0,2,0,10,3,63,1,1234.523905992508,None,1,0.500169038772583,1234.523905992508,None,1235.1350400447845,None,1236.1161921024323,1236.4695780277252,1236.1161921024323,1236.4695780277252,1235.1350400447845,None,1235.1350400447845,None,1235.1350400447845,None,1,True,257.0023536682129,960.3030681610107,left,1238.2564339637756,None,-1,-1,pilot1,icub,clamp,2021_Dec_20_1120,exp,2021.2.3,60.03372179235048,
left,go,2,0,2,0,10,4,64,1,1238.7767281532288,None,1,1.6000299453735352,1238.7767281532288,None,1240.4961140155792,None,1241.5128190517426,1241.8705139160156,1241.5128190517426,1241.8705139160156,1240.4961140155792,None,1240.4961140155792,None,1240.4961140155792,None,1,True,411.4243984222412,1039.5135879516602,left,1243.8523969650269,None,-1,-1,pilot1,icub,clamp,2021_Dec_20_1120,exp,2021.2.3,60.03372179235048,
right,go,2,0,2,0,10,5,65,3,1244.3641829490662,None,1,0.7410199642181396,1244.3641829490662,None,1245.2154850959778,None,1246.2202699184418,1246.5882930755615,1246.2202699184418,1246.5882930755615,1245.2154850959778,None,1245.2154850959778,None,1245.2154850959778,None,1,True,497.1780776977539,969.0642356872559,right,1248.5848269462585,None,-1,-1,pilot1,icub,clamp,2021_Dec_20_1120,exp,2021.2.3,60.03372179235048,
left,go,2,0,2,0,11,0,66,1,1249.0972681045532,None,1,0.7839550971984863,1249.0972681045532,None,1250.009262084961,None,1251.0239119529724,1251.375069141388,1251.0239119529724,1251.375069141388,1250.009262084961,None,1250.009262084961,None,1250.009262084961,None,1,True,421.7259883880615,942.0170783996582,left,1253.2725529670715,None,-1,-1,pilot1,icub,clamp,2021_Dec_20_1120,exp,2021.2.3,60.03372179235048,
right,stop,2,0,2,0,11,1,67,5,1253.7718391418457,None,1,0.9336700439453125,1253.7718391418457,None,1254.81108212471,None,1255.8108971118927,1256.1756200790405,1255.8108971118927,1256.1756200790405,1254.81108212471,None,1254.81108212471,None,1254.81108212471,None,0,True,632.9782009124756,895.9014415740967,right,1258.232437133789,None,900,950,pilot1,icub,clamp,2021_Dec_20_1120,exp,2021.2.3,60.03372179235048,
left,go,2,0,2,0,11,2,68,0,1258.73108792305,None,1,1.5348610877990723,1258.73108792305,None,1260.3565361499786,None,1261.3498229980469,1261.7130010128021,1261.3498229980469,1261.7130010128021,1260.3565361499786,None,1260.3565361499786,None,1260.3565361499786,None,1,True,265.38586616516113,1278.4676551818848,left,1263.7868230342865,None,-1,-1,pilot1,icub,clamp,2021_Dec_20_1120,exp,2021.2.3,60.03372179235048,
left,go,2,0,2,0,11,3,69,0,1264.2933189868927,None,1,0.528156042098999,1264.2933189868927,None,1264.8970091342926,None,1265.8969209194183,1266.2538940906525,1265.8969209194183,1266.2538940906525,1264.8970091342926,None,1264.8970091342926,None,1264.8970091342926,None,1,True,336.8978500366211,1341.2225246429443,left,1268.4628949165344,None,-1,-1,pilot1,icub,clamp,2021_Dec_20_1120,exp,2021.2.3,60.03372179235048,
right,stop,2,0,2,0,11,4,70,5,1268.9830589294434,None,1,0.49031901359558105,1268.9830589294434,None,1269.584792137146,None,1270.614695072174,1270.970794916153,1270.614695072174,1270.970794916153,1269.584792137146,None,1269.584792137146,None,1269.584792137146,None,1,True,539.9668216705322,-1.0,-1,1274.9997470378876,None,900,900,pilot1,icub,clamp,2021_Dec_20_1120,exp,2021.2.3,60.03372179235048,
left,stop,2,0,2,0,11,5,71,2,1275.5313730239868,None,1,0.7425258159637451,1275.5313730239868,None,1276.3920159339905,None,1277.3760130405426,1277.7207789421082,1277.3760130405426,1277.7207789421082,1276.3920159339905,None,1276.3920159339905,None,1276.3920159339905,None,0,True,560.9123706817627,1053.0831813812256,left,1279.904814004898,None,900,950,pilot1,icub,clamp,2021_Dec_20_1120,exp,2021.2.3,60.03372179235048,
left,go,2,0,2,0,12,0,72,0,1280.4147369861603,None,1,1.1004018783569336,1280.4147369861603,None,1281.6387600898743,None,1282.6563770771027,1283.0193219184875,1282.6563770771027,1283.0193219184875,1281.6387600898743,None,1281.6387600898743,None,1281.6387600898743,None,1,True,436.37657165527344,1129.7309398651123,left,1285.1164920330048,None,-1,-1,pilot1,icub,clamp,2021_Dec_20_1120,exp,2021.2.3,60.03372179235048,
right,stop,2,0,2,0,12,1,73,5,1285.6336801052094,None,1,0.7848799228668213,1285.6336801052094,None,1286.5414371490479,None,1287.5679731369019,1287.9209949970245,1287.5679731369019,1287.9209949970245,1286.5414371490479,None,1286.5414371490479,None,1286.5414371490479,None,0,True,508.58259201049805,1082.4878215789795,right,1290.0434830188751,None,850,950,pilot1,icub,clamp,2021_Dec_20_1120,exp,2021.2.3,60.03372179235048,
right,stop,2,0,2,0,12,2,74,5,1290.5775821208954,None,1,1.5358250141143799,1290.5775821208954,None,1292.2344830036163,None,1293.2518939971924,1293.5858030319214,1293.2518939971924,1293.5858030319214,1292.2344830036163,None,1292.2344830036163,None,1292.2344830036163,None,1,True,435.7876777648926,-1.0,-1,1297.5895280838013,None,850,900,pilot1,icub,clamp,2021_Dec_20_1120,exp,2021.2.3,60.03372179235048,
right,go,2,0,2,0,12,3,75,4,1298.083792924881,None,1,1.4371469020843506,1298.083792924881,None,1299.621523141861,None,1300.5936551094055,1300.91770195961,1300.5936551094055,1300.91770195961,1299.621523141861,None,1299.621523141861,None,1299.621523141861,None,1,True,292.8647994995117,1279.3724536895752,right,1303.0594229698181,None,-1,-1,pilot1,icub,clamp,2021_Dec_20_1120,exp,2021.2.3,60.03372179235048,
left,stop,2,0,2,0,12,4,76,2,1303.5868120193481,None,1,0.4745500087738037,1303.5868120193481,None,1304.1820549964905,None,1305.2089281082153,1305.56618309021,1305.2089281082153,1305.56618309021,1304.1820549964905,None,1304.1820549964905,None,1304.1820549964905,None,1,True,328.29785346984863,-1.0,-1,1309.4196290969849,None,850,950,pilot1,icub,clamp,2021_Dec_20_1120,exp,2021.2.3,60.03372179235048,
right,go,2,0,2,0,12,5,77,4,1309.9506149291992,None,1,0.7592411041259766,1309.9506149291992,None,1310.8108041286469,None,1311.8046009540558,1312.1671209335327,1311.8046009540558,1312.1671209335327,1310.8108041286469,None,1310.8108041286469,None,1310.8108041286469,None,1,True,300.56118965148926,1332.3519229888916,right,1314.3292140960693,None,-1,-1,pilot1,icub,clamp,2021_Dec_20_1120,exp,2021.2.3,60.03372179235048,
right,go,3,0,3,0,0,0,0,4,1331.347177028656,None,1,4.1998610496521,1331.347177028656,None,1335.653408050537,None,1336.668312072754,1337.0202269554138,1336.668312072754,1337.0202269554138,1335.653408050537,None,1335.653408050537,None,1335.653408050537,None,1,True,517.7297592163086,843.3997631072998,right,1338.908893108368,None,-1,-1,pilot1,icub,clamp,2021_Dec_20_1120,exp,2021.2.3,60.03372179235048,
right,go,3,0,3,0,0,1,1,4,1339.4103281497955,None,1,0.8822581768035889,1339.4103281497955,None,1340.38343501091,None,1341.4156820774078,1341.767571926117,1341.4156820774078,1341.767571926117,1340.38343501091,None,1340.38343501091,None,1340.38343501091,None,1,True,592.4615859985352,931.5907955169678,right,1343.7827551364899,None,-1,-1,pilot1,icub,clamp,2021_Dec_20_1120,exp,2021.2.3,60.03372179235048,
right,go,3,0,3,0,0,2,2,3,1344.2816071510315,None,1,0.6003749370574951,1344.2816071510315,None,1345.006686925888,None,1346.0015020370483,1346.3604941368103,1346.0015020370483,1346.3604941368103,1345.006686925888,None,1345.006686925888,None,1345.006686925888,None,1,True,526.4701843261719,998.8870620727539,right,1348.41113114357,None,-1,-1,pilot1,icub,clamp,2021_Dec_20_1120,exp,2021.2.3,60.03372179235048,
left,go,3,0,3,0,0,3,3,1,1348.9283440113068,None,1,0.6329209804534912,1348.9283440113068,None,1349.6554400920868,None,1350.6523129940033,1351.0103731155396,1350.6523129940033,1351.0103731155396,1349.6554400920868,None,1349.6554400920868,None,1349.6554400920868,None,1,True,560.09840965271,1026.6599655151367,left,1353.1265790462494,None,-1,-1,pilot1,icub,clamp,2021_Dec_20_1120,exp,2021.2.3,60.03372179235048,
left,go,3,0,3,0,0,4,4,0,1353.6444590091705,None,1,0.606536865234375,1353.6444590091705,None,1354.371689081192,None,1355.4053490161896,1355.7572131156921,1355.4053490161896,1355.7572131156921,1354.371689081192,None,1354.371689081192,None,1354.371689081192,None,1,True,624.7410774230957,1011.5861892700195,left,1357.8846609592438,None,-1,-1,pilot1,icub,clamp,2021_Dec_20_1120,exp,2021.2.3,60.03372179235048,
left,go,3,0,3,0,0,5,5,1,1358.3863010406494,None,1,0.5258491039276123,1358.3863010406494,None,1358.992676973343,None,1360.0083849430084,1360.3642311096191,1360.0083849430084,1360.3642311096191,1358.992676973343,None,1358.992676973343,None,1358.992676973343,None,1,True,517.3187255859375,1180.2842617034912,left,1362.5812060832977,None,-1,-1,pilot1,icub,clamp,2021_Dec_20_1120,exp,2021.2.3,60.03372179235048,
left,go,3,0,3,0,1,0,6,1,1363.1025891304016,None,1,0.5064539909362793,1363.1025891304016,None,1363.711168050766,None,1364.7342610359192,1365.0918459892273,1364.7342610359192,1365.0918459892273,1363.711168050766,None,1363.711168050766,None,1363.711168050766,None,1,True,428.8821220397949,1180.535078048706,left,1367.1925129890442,None,-1,-1,pilot1,icub,clamp,2021_Dec_20_1120,exp,2021.2.3,60.03372179235048,
left,stop,3,0,3,0,1,1,7,2,1367.7242290973663,None,1,0.5121071338653564,1367.7242290973663,None,1368.326740026474,None,1369.323804140091,1369.6848409175873,1369.323804140091,1369.6848409175873,1368.326740026474,None,1368.326740026474,None,1368.326740026474,None,0,True,270.08652687072754,1077.2297382354736,left,1371.5476729869843,None,900,950,pilot1,icub,clamp,2021_Dec_20_1120,exp,2021.2.3,60.03372179235048,
right,stop,3,0,3,0,1,2,8,5,1372.0703971385956,None,1,0.9615499973297119,1372.0703971385956,None,1373.1077229976654,None,1374.0974071025848,1374.444102048874,1374.0974071025848,1374.444102048874,1373.1077229976654,None,1373.1077229976654,None,1373.1077229976654,None,1,True,321.4735984802246,-1.0,-1,1378.3313200473785,None,850,950,pilot1,icub,clamp,2021_Dec_20_1120,exp,2021.2.3,60.03372179235048,
left,go,3,0,3,0,1,3,9,1,1378.8255059719086,None,1,0.44725799560546875,1378.8255059719086,None,1379.3760120868683,None,1380.3881030082703,1380.7414960861206,1380.3881030082703,1380.7414960861206,1379.3760120868683,None,1379.3760120868683,None,1379.3760120868683,None,1,True,380.8255195617676,1151.6451835632324,left,1382.7967960834503,None,-1,-1,pilot1,icub,clamp,2021_Dec_20_1120,exp,2021.2.3,60.03372179235048,
left,go,3,0,3,0,1,4,10,0,1383.3044691085815,None,1,0.6326611042022705,1383.3044691085815,None,1384.037586927414,None,1385.0437140464783,1385.3878531455994,1385.0437140464783,1385.3878531455994,1384.037586927414,None,1384.037586927414,None,1384.037586927414,None,1,True,330.7464122772217,1224.1573333740234,left,1387.466500043869,None,-1,-1,pilot1,icub,clamp,2021_Dec_20_1120,exp,2021.2.3,60.03372179235048,
right,go,3,0,3,0,1,5,11,4,1387.9700989723206,None,1,0.553804874420166,1387.9700989723206,None,1388.6339099407196,None,1389.6539480686188,1390.0025379657745,1389.6539480686188,1390.0025379657745,1388.6339099407196,None,1388.6339099407196,None,1388.6339099407196,None,1,True,256.9875717163086,1091.5143489837646,right,1391.8796911239624,None,-1,-1,pilot1,icub,clamp,2021_Dec_20_1120,exp,2021.2.3,60.03372179235048,
