Holder,Action,blocks.thisRepN,blocks.thisTrialN,blocks.thisN,blocks.thisIndex,trials.thisRepN,trials.thisTrialN,trials.thisN,trials.thisIndex,start_msg.started,start_msg.stopped,RespButton_start_trial.keys,RespButton_start_trial.rt,RespButton_start_trial.started,RespButton_start_trial.stopped,GREEN.started,GREEN.stopped,LEFT_RED.started,LEFT_RED.stopped,RIGHT_RED.started,RIGHT_RED.stopped,LEFT_CIRCLE.started,LEFT_CIRCLE.stopped,CENTER_CIRCLE.started,CENTER_CIRCLE.stopped,RIGHT_CIRCLE.started,RIGHT_CIRCLE.stopped,SOUND_DELAY_MS_LEFT,SOUND_DELAY_MS_RIGHT,CORRECT,VALIDITY,RELEASE_TIME,TOUCH_TIME,BOTTLE_RESPONSE_POSITION,text.started,text.stopped,pid,left_position,right_position,date,expName,psychopyVersion,frameRate,
left,stop,0,0,0,0,0,0,0,2,18.79316997528076,None,1,53.95526099205017,18.79316997528076,None,72.86015701293945,None,73.89251112937927,74.24733400344849,73.89251112937927,74.24733400344849,72.86015701293945,None,72.86015701293945,None,72.86015701293945,None,500,500,1,True,264.1751766204834,-1.0,-1,78.01114797592163,None,pilot2,icub,clamp,2021_Dec_20_1209,exp,2021.2.3,59.930100905030386,
right,stop,0,0,0,0,0,1,1,5,78.5033130645752,None,1,0.6876270771026611,78.5033130645752,None,79.29955005645752,None,80.27638101577759,80.64730596542358,80.27638101577759,80.64730596542358,79.29955005645752,None,79.29955005645752,None,79.29955005645752,None,550,500,1,True,293.0476665496826,-1.0,-1,84.46838617324829,None,pilot2,icub,clamp,2021_Dec_20_1209,exp,2021.2.3,59.930100905030386,
left,stop,0,0,0,0,0,2,2,2,85.00069212913513,None,1,0.6671841144561768,85.00069212913513,None,85.79657816886902,None,86.82537698745728,87.18612313270569,86.82537698745728,87.18612313270569,85.79657816886902,None,85.79657816886902,None,85.79657816886902,None,550,550,1,True,269.8218822479248,-1.0,-1,90.94269394874573,None,pilot2,icub,clamp,2021_Dec_20_1209,exp,2021.2.3,59.930100905030386,
right,go,0,0,0,0,0,3,3,3,91.47261810302734,None,1,0.6432380676269531,91.47261810302734,None,92.20702695846558,None,93.17966103553772,93.5246651172638,93.17966103553772,93.5246651172638,92.20702695846558,None,92.20702695846558,None,92.20702695846558,None,-1,-1,1,True,536.2489223480225,1122.6227283477783,right,95.74520015716553,None,pilot2,icub,clamp,2021_Dec_20_1209,exp,2021.2.3,59.930100905030386,
left,go,0,0,0,0,0,4,4,1,96.26390504837036,None,1,0.6241660118103027,96.26390504837036,None,96.99400997161865,None,97.99844598770142,98.3527410030365,97.99844598770142,98.3527410030365,96.99400997161865,None,96.99400997161865,None,96.99400997161865,None,-1,-1,1,True,279.0944576263428,1145.822286605835,left,100.29725217819214,None,pilot2,icub,clamp,2021_Dec_20_1209,exp,2021.2.3,59.930100905030386,
right,stop,0,0,0,0,0,5,5,5,100.83293914794922,None,1,0.5666890144348145,100.83293914794922,None,101.49992108345032,None,102.50520205497742,102.8747730255127,102.50520205497742,102.8747730255127,101.49992108345032,None,101.49992108345032,None,101.49992108345032,None,600,550,1,True,381.2599182128906,-1.0,-1,106.78348898887634,None,pilot2,icub,clamp,2021_Dec_20_1209,exp,2021.2.3,59.930100905030386,
left,go,0,0,0,0,1,0,6,1,107.31339406967163,None,1,0.6123731136322021,107.31339406967163,None,108.04781007766724,None,109.06800103187561,109.40840005874634,109.06800103187561,109.40840005874634,108.04781007766724,None,108.04781007766724,None,108.04781007766724,None,-1,-1,1,True,273.29039573669434,1098.1090068817139,left,111.30894112586975,None,pilot2,icub,clamp,2021_Dec_20_1209,exp,2021.2.3,59.930100905030386,
right,stop,0,0,0,0,1,1,7,5,111.81179714202881,None,1,0.6726880073547363,111.81179714202881,None,112.59988117218018,None,113.61961913108826,113.97815704345703,113.61961913108826,113.97815704345703,112.59988117218018,None,112.59988117218018,None,112.59988117218018,None,600,600,1,True,286.7922782897949,-1.0,-1,117.7946629524231,None,pilot2,icub,clamp,2021_Dec_20_1209,exp,2021.2.3,59.930100905030386,
right,stop,0,0,0,0,1,2,8,5,118.32551908493042,None,1,0.3911309242248535,118.32551908493042,None,118.8131639957428,None,119.78398609161377,120.13768100738525,119.78398609161377,120.13768100738525,118.8131639957428,None,118.8131639957428,None,118.8131639957428,None,,,0,False,-1.0,-1.0,-1,120.32803297042847,None,pilot2,icub,clamp,2021_Dec_20_1209,exp,2021.2.3,59.930100905030386,
left,stop,0,0,0,0,1,3,9,2,120.85816597938538,None,1,1.1125829219818115,120.85816597938538,None,122.08744406700134,None,123.08684301376343,123.43865513801575,123.08684301376343,123.43865513801575,122.08744406700134,None,122.08744406700134,None,122.08744406700134,None,600,650,1,True,323.7473964691162,-1.0,-1,127.28885912895203,None,pilot2,icub,clamp,2021_Dec_20_1209,exp,2021.2.3,59.930100905030386,
left,stop,0,0,0,0,1,4,10,2,127.78171801567078,None,1,0.44689512252807617,127.78171801567078,None,128.33171105384827,None,129.30590915679932,129.66599297523499,129.30590915679932,129.66599297523499,128.33171105384827,None,128.33171105384827,None,128.33171105384827,None,650,650,1,True,289.9200916290283,-1.0,-1,133.48889112472534,None,pilot2,icub,clamp,2021_Dec_20_1209,exp,2021.2.3,59.930100905030386,
right,go,0,0,0,0,1,5,11,3,134.02091312408447,None,1,0.33771300315856934,134.02091312408447,None,134.44735503196716,None,135.42514610290527,135.79233503341675,135.42514610290527,135.79233503341675,134.44735503196716,None,134.44735503196716,None,134.44735503196716,None,-1,-1,1,True,269.390344619751,1199.0675926208496,right,137.79047417640686,None,pilot2,icub,clamp,2021_Dec_20_1209,exp,2021.2.3,59.930100905030386,
right,stop,0,0,0,0,2,0,12,5,138.298269033432,None,1,0.6447811126708984,138.298269033432,None,139.07638812065125,None,140.10932898521423,140.4631221294403,140.10932898521423,140.4631221294403,139.07638812065125,None,139.07638812065125,None,139.07638812065125,None,700,650,1,True,193.38107109069824,-1.0,-1,144.14229011535645,None,pilot2,icub,clamp,2021_Dec_20_1209,exp,2021.2.3,59.930100905030386,
right,go,0,0,0,0,2,1,13,4,144.67274713516235,None,1,0.46387505531311035,144.67274713516235,None,145.2226710319519,None,146.224956035614,146.54874205589294,146.224956035614,146.54874205589294,145.2226710319519,None,145.2226710319519,None,145.2226710319519,None,-1,-1,1,True,252.33793258666992,1195.708990097046,right,148.56252002716064,None,pilot2,icub,clamp,2021_Dec_20_1209,exp,2021.2.3,59.930100905030386,
left,go,0,0,0,0,2,2,14,1,149.07273817062378,None,1,0.6214349269866943,149.07273817062378,None,149.80104804039001,None,150.82176113128662,151.14922308921814,150.82176113128662,151.14922308921814,149.80104804039001,None,149.80104804039001,None,149.80104804039001,None,-1,-1,1,True,266.12067222595215,1196.8879699707031,left,153.13837814331055,None,pilot2,icub,clamp,2021_Dec_20_1209,exp,2021.2.3,59.930100905030386,
left,go,0,0,0,0,2,3,15,1,153.65126514434814,None,1,0.5467820167541504,153.65126514434814,None,154.31889510154724,None,155.34691715240479,155.69431805610657,155.34691715240479,155.69431805610657,154.31889510154724,None,154.31889510154724,None,154.31889510154724,None,-1,-1,1,True,360.11242866516113,1592.2105312347412,left,158.16943216323853,None,pilot2,icub,clamp,2021_Dec_20_1209,exp,2021.2.3,59.930100905030386,
right,go,0,0,0,0,2,4,16,3,158.67382502555847,None,1,0.47617101669311523,158.67382502555847,None,159.27196097373962,None,160.28441405296326,160.63913202285767,160.28441405296326,160.63913202285767,159.27196097373962,None,159.27196097373962,None,159.27196097373962,None,-1,-1,1,True,272.3696231842041,1175.7457256317139,right,162.6166980266571,None,pilot2,icub,clamp,2021_Dec_20_1209,exp,2021.2.3,59.930100905030386,
left,go,0,0,0,0,2,5,17,0,163.13240909576416,None,1,0.7365579605102539,163.13240909576416,None,163.9841411113739,None,165.01125717163086,165.34609818458557,165.01125717163086,165.34609818458557,163.9841411113739,None,163.9841411113739,None,163.9841411113739,None,-1,-1,1,True,283.9996814727783,1278.3243656158447,left,167.43177604675293,None,pilot2,icub,clamp,2021_Dec_20_1209,exp,2021.2.3,59.930100905030386,
left,stop,0,0,0,0,3,0,18,2,167.93254613876343,None,1,0.4555211067199707,167.93254613876343,None,168.4785521030426,None,169.50829696655273,169.8653600215912,169.50829696655273,169.8653600215912,168.4785521030426,None,168.4785521030426,None,168.4785521030426,None,700,700,1,True,364.03536796569824,-1.0,-1,173.71061396598816,None,pilot2,icub,clamp,2021_Dec_20_1209,exp,2021.2.3,59.930100905030386,
left,go,0,0,0,0,3,1,19,0,174.2416000366211,None,1,0.47095584869384766,174.2416000366211,None,174.79140496253967,None,175.76654696464539,176.1099271774292,175.76654696464539,176.1099271774292,174.79140496253967,None,174.79140496253967,None,174.79140496253967,None,-1,-1,1,True,199.74565505981445,1296.114444732666,left,178.17535305023193,None,pilot2,icub,clamp,2021_Dec_20_1209,exp,2021.2.3,59.930100905030386,
left,go,0,0,0,0,3,2,20,0,178.68064904212952,None,1,0.8692288398742676,178.68064904212952,None,179.65607810020447,None,180.68860912322998,181.03914499282837,180.68860912322998,181.03914499282837,179.65607810020447,None,179.65607810020447,None,179.65607810020447,None,-1,-1,1,True,299.4372844696045,1232.2306632995605,left,183.09541702270508,None,pilot2,icub,clamp,2021_Dec_20_1209,exp,2021.2.3,59.930100905030386,
left,go,0,0,0,0,3,3,21,1,183.62934398651123,None,1,0.48044896125793457,183.62934398651123,None,184.2332410812378,None,185.25965404510498,185.62763094902039,185.25965404510498,185.62763094902039,184.2332410812378,None,184.2332410812378,None,184.2332410812378,None,-1,-1,1,True,338.49191665649414,1369.999647140503,left,187.8167061805725,None,pilot2,icub,clamp,2021_Dec_20_1209,exp,2021.2.3,59.930100905030386,
left,go,0,0,0,0,3,4,22,1,188.31911706924438,None,1,0.5407319068908691,188.31911706924438,None,188.98381304740906,None,190.00963497161865,190.3603711128235,190.00963497161865,190.3603711128235,188.98381304740906,None,188.98381304740906,None,188.98381304740906,None,-1,-1,1,True,329.50568199157715,1367.8500652313232,left,192.57370805740356,None,pilot2,icub,clamp,2021_Dec_20_1209,exp,2021.2.3,59.930100905030386,
right,go,0,0,0,0,3,5,23,4,193.08994507789612,None,1,0.4358952045440674,193.08994507789612,None,193.63064217567444,None,194.65947103500366,194.9824981689453,194.65947103500366,194.9824981689453,193.63064217567444,None,193.63064217567444,None,193.63064217567444,None,-1,-1,1,True,269.3614959716797,1383.6476802825928,right,197.19055199623108,None,pilot2,icub,clamp,2021_Dec_20_1209,exp,2021.2.3,59.930100905030386,
right,go,0,0,0,0,4,0,24,4,197.71074509620667,None,1,0.5871589183807373,197.71074509620667,None,198.37811708450317,None,199.38340616226196,199.74343609809875,199.38340616226196,199.74343609809875,198.37811708450317,None,198.37811708450317,None,198.37811708450317,None,-1,-1,1,True,59.70621109008789,1387.113332748413,right,201.71919798851013,None,pilot2,icub,clamp,2021_Dec_20_1209,exp,2021.2.3,59.930100905030386,
left,stop,0,0,0,0,4,1,25,2,202.24473905563354,None,1,0.47702908515930176,202.24473905563354,None,202.84444499015808,None,203.83829808235168,204.18379402160645,203.83829808235168,204.18379402160645,202.84444499015808,None,202.84444499015808,None,202.84444499015808,None,750,700,1,True,324.54633712768555,-1.0,-1,208.06227016448975,None,pilot2,icub,clamp,2021_Dec_20_1209,exp,2021.2.3,59.930100905030386,
right,go,0,0,0,0,4,2,26,3,208.59503698349,None,1,0.2943308353424072,208.59503698349,None,209.02187299728394,None,210.02601313591003,210.38015413284302,210.02601313591003,210.38015413284302,209.02187299728394,None,209.02187299728394,None,209.02187299728394,None,-1,-1,1,True,306.22410774230957,1311.173677444458,right,212.52715396881104,None,pilot2,icub,clamp,2021_Dec_20_1209,exp,2021.2.3,59.930100905030386,
right,go,0,0,0,0,4,3,27,3,213.03151607513428,None,1,0.47753119468688965,213.03151607513428,None,213.63186812400818,None,214.65321516990662,215.00588417053223,214.65321516990662,215.00588417053223,213.63186812400818,None,213.63186812400818,None,213.63186812400818,None,-1,-1,1,True,250.19001960754395,1709.280252456665,right,217.48792505264282,None,pilot2,icub,clamp,2021_Dec_20_1209,exp,2021.2.3,59.930100905030386,
left,go,0,0,0,0,4,4,28,0,217.99360513687134,None,1,0.5767879486083984,217.99360513687134,None,218.66127705574036,None,219.6635320186615,220.01376008987427,219.6635320186615,220.01376008987427,218.66127705574036,None,218.66127705574036,None,218.66127705574036,None,-1,-1,1,True,327.61073112487793,1551.975965499878,left,222.41893601417542,None,pilot2,icub,clamp,2021_Dec_20_1209,exp,2021.2.3,59.930100905030386,
left,stop,0,0,0,0,4,5,29,2,222.93127012252808,None,1,0.5446059703826904,222.93127012252808,None,223.59397912025452,None,224.61066699028015,224.9588921070099,224.61066699028015,224.9588921070099,223.59397912025452,None,223.59397912025452,None,223.59397912025452,None,800,700,1,True,328.68051528930664,-1.0,-1,228.80948400497437,None,pilot2,icub,clamp,2021_Dec_20_1209,exp,2021.2.3,59.930100905030386,
right,go,0,0,0,0,5,0,30,4,229.3401300907135,None,1,0.46609997749328613,229.3401300907135,None,229.89053797721863,None,230.90121817588806,231.24081301689148,230.90121817588806,231.24081301689148,229.89053797721863,None,229.89053797721863,None,229.89053797721863,None,-1,-1,1,True,316.12539291381836,917.905330657959,right,232.99299502372742,None,pilot2,icub,clamp,2021_Dec_20_1209,exp,2021.2.3,59.930100905030386,
right,go,0,0,0,0,5,1,31,4,233.4991090297699,None,1,0.6539969444274902,233.4991090297699,None,234.2865331172943,None,235.29977107048035,235.65350103378296,235.29977107048035,235.65350103378296,234.2865331172943,None,234.2865331172943,None,234.2865331172943,None,-1,-1,1,True,384.89270210266113,1369.1442012786865,right,237.9252691268921,None,pilot2,icub,clamp,2021_Dec_20_1209,exp,2021.2.3,59.930100905030386,
right,go,0,0,0,0,5,2,32,4,238.43983817100525,None,1,0.6270771026611328,238.43983817100525,None,239.1662631034851,None,240.1712839603424,240.51913404464722,240.1712839603424,240.51913404464722,239.1662631034851,None,239.1662631034851,None,239.1662631034851,None,-1,-1,1,True,282.25135803222656,1572.3657608032227,right,242.8975169658661,None,pilot2,icub,clamp,2021_Dec_20_1209,exp,2021.2.3,59.930100905030386,
left,stop,0,0,0,0,5,3,33,2,243.4096930027008,None,1,0.5491669178009033,243.4096930027008,None,244.07520413398743,None,245.09721207618713,245.42760610580444,245.09721207618713,245.42760610580444,244.07520413398743,None,244.07520413398743,None,244.07520413398743,None,850,700,1,True,337.6173973083496,-1.0,-1,249.29432702064514,None,pilot2,icub,clamp,2021_Dec_20_1209,exp,2021.2.3,59.930100905030386,
right,go,0,0,0,0,5,4,34,4,249.8261239528656,None,1,0.41819190979003906,249.8261239528656,None,250.37604212760925,None,251.36375999450684,251.72484803199768,251.36375999450684,251.72484803199768,250.37604212760925,None,250.37604212760925,None,250.37604212760925,None,-1,-1,1,True,241.16826057434082,1126.5699863433838,right,253.6121051311493,None,pilot2,icub,clamp,2021_Dec_20_1209,exp,2021.2.3,59.930100905030386,
right,go,0,0,0,0,5,5,35,3,254.14217400550842,None,1,0.717548131942749,254.14217400550842,None,254.93014001846313,None,255.9569799900055,256.31925201416016,255.9569799900055,256.31925201416016,254.93014001846313,None,254.93014001846313,None,254.93014001846313,None,-1,-1,1,True,299.0593910217285,1309.89670753479,right,258.4150450229645,None,pilot2,icub,clamp,2021_Dec_20_1209,exp,2021.2.3,59.930100905030386,
right,stop,0,0,0,0,6,0,36,5,258.91450715065,None,1,0.8319149017333984,258.91450715065,None,259.82699608802795,None,260.85417103767395,261.2045991420746,260.85417103767395,261.2045991420746,259.82699608802795,None,259.82699608802795,None,259.82699608802795,None,900,700,1,True,319.7770118713379,-1.0,-1,265.04985308647156,None,pilot2,icub,clamp,2021_Dec_20_1209,exp,2021.2.3,59.930100905030386,
right,stop,0,0,0,0,6,1,37,5,265.58060598373413,None,1,0.4685828685760498,265.58060598373413,None,266.12995409965515,None,267.12749695777893,267.45486307144165,267.12749695777893,267.45486307144165,266.12995409965515,None,266.12995409965515,None,266.12995409965515,None,900,750,1,True,313.89307975769043,-1.0,-1,271.3325581550598,None,pilot2,icub,clamp,2021_Dec_20_1209,exp,2021.2.3,59.930100905030386,
left,go,0,0,0,0,6,2,38,1,271.8641560077667,None,1,0.41092586517333984,271.8641560077667,None,272.41372418403625,None,273.39406394958496,273.7412941455841,273.39406394958496,273.7412941455841,272.41372418403625,None,272.41372418403625,None,272.41372418403625,None,-1,-1,1,True,258.2659721374512,1633.7182521820068,left,276.18328404426575,None,pilot2,icub,clamp,2021_Dec_20_1209,exp,2021.2.3,59.930100905030386,
left,go,0,0,0,0,6,3,39,0,276.6858880519867,None,1,0.5794799327850342,276.6858880519867,None,277.35111808776855,None,278.3706040382385,278.70008611679077,278.3706040382385,278.70008611679077,277.35111808776855,None,277.35111808776855,None,277.35111808776855,None,-1,-1,1,True,336.6589546203613,1388.6213302612305,left,280.95076298713684,None,pilot2,icub,clamp,2021_Dec_20_1209,exp,2021.2.3,59.930100905030386,
left,stop,0,0,0,0,6,4,40,2,281.4826440811157,None,1,0.8517110347747803,281.4826440811157,None,282.4403691291809,None,283.4317729473114,283.7743649482727,283.4317729473114,283.7743649482727,282.4403691291809,None,282.4403691291809,None,282.4403691291809,None,900,800,1,True,333.6224555969238,-1.0,-1,287.67370200157166,None,pilot2,icub,clamp,2021_Dec_20_1209,exp,2021.2.3,59.930100905030386,
right,go,0,0,0,0,6,5,41,3,288.20446014404297,None,1,0.31362104415893555,288.20446014404297,None,288.6313099861145,None,289.6011891365051,289.9373359680176,289.6011891365051,289.9373359680176,288.6313099861145,None,288.6313099861145,None,288.6313099861145,None,-1,-1,1,True,274.2605209350586,848.9665985107422,right,291.6298761367798,None,pilot2,icub,clamp,2021_Dec_20_1209,exp,2021.2.3,59.930100905030386,
left,stop,0,0,0,0,7,0,42,2,292.16675209999084,None,1,0.49561405181884766,292.16675209999084,None,292.7677550315857,None,293.7934031486511,294.15203309059143,293.7934031486511,294.15203309059143,292.7677550315857,None,292.7677550315857,None,292.7677550315857,None,950,800,1,True,321.26426696777344,-1.0,-1,297.98973298072815,None,pilot2,icub,clamp,2021_Dec_20_1209,exp,2021.2.3,59.930100905030386,
right,go,0,0,0,0,7,1,43,4,298.5202569961548,None,1,0.29576802253723145,298.5202569961548,None,298.9454960823059,None,299.91642212867737,300.26419401168823,299.91642212867737,300.26419401168823,298.9454960823059,None,298.9454960823059,None,298.9454960823059,None,-1,-1,1,True,269.2837715148926,904.3979644775391,right,302.00611901283264,None,pilot2,icub,clamp,2021_Dec_20_1209,exp,2021.2.3,59.930100905030386,
left,go,0,0,0,0,7,2,44,1,302.5247530937195,None,1,1.7296710014343262,302.5247530937195,None,304.3678991794586,None,305.3754141330719,305.73973202705383,305.3754141330719,305.73973202705383,304.3678991794586,None,304.3678991794586,None,304.3678991794586,None,-1,-1,1,True,261.42072677612305,1430.2599430084229,left,307.95226216316223,None,pilot2,icub,clamp,2021_Dec_20_1209,exp,2021.2.3,59.930100905030386,
right,go,0,0,0,0,7,3,45,3,308.47633814811707,None,1,0.411998987197876,308.47633814811707,None,309.01744198799133,None,310.0236520767212,310.37788105010986,310.0236520767212,310.37788105010986,309.01744198799133,None,309.01744198799133,None,309.01744198799133,None,-1,-1,1,True,278.822660446167,1167.2389507293701,right,312.3529009819031,None,pilot2,icub,clamp,2021_Dec_20_1209,exp,2021.2.3,59.930100905030386,
right,go,0,0,0,0,7,4,46,4,312.8698060512543,None,1,0.42370009422302246,312.8698060512543,None,313.4093179702759,None,314.4385199546814,314.79752111434937,314.4385199546814,314.79752111434937,313.4093179702759,None,313.4093179702759,None,313.4093179702759,None,-1,-1,1,True,284.743070602417,740.4012680053711,right,316.3106291294098,None,pilot2,icub,clamp,2021_Dec_20_1209,exp,2021.2.3,59.930100905030386,
right,go,0,0,0,0,7,5,47,3,316.81736397743225,None,1,0.6571700572967529,316.81736397743225,None,317.6025061607361,None,318.6229190826416,318.97831296920776,318.6229190826416,318.97831296920776,317.6025061607361,None,317.6025061607361,None,317.6025061607361,None,-1,-1,0,False,271.0766792297363,1249.37105178833,left,321.0259521007538,None,pilot2,icub,clamp,2021_Dec_20_1209,exp,2021.2.3,59.930100905030386,
left,stop,0,0,0,0,8,0,48,2,321.54857110977173,None,1,2.476685047149658,321.54857110977173,None,324.1265799999237,None,325.14335203170776,325.49254512786865,325.14335203170776,325.49254512786865,324.1265799999237,None,324.1265799999237,None,324.1265799999237,None,,,0,False,-1.0,-1.0,-1,325.92951011657715,None,pilot2,icub,clamp,2021_Dec_20_1209,exp,2021.2.3,59.930100905030386,
left,stop,0,0,0,0,8,1,49,2,326.45919704437256,None,1,32.182673931121826,326.45919704437256,None,358.7372679710388,None,359.76021695137024,360.10347604751587,359.76021695137024,360.10347604751587,358.7372679710388,None,358.7372679710388,None,358.7372679710388,None,1000,800,0,True,283.82015228271484,571.5992450714111,left,361.4636299610138,None,pilot2,icub,clamp,2021_Dec_20_1209,exp,2021.2.3,59.930100905030386,
left,go,0,0,0,0,8,2,50,0,361.9729561805725,None,1,7.56925106048584,361.9729561805725,None,369.62748098373413,None,370.64740204811096,371.00360107421875,370.64740204811096,371.00360107421875,369.62748098373413,None,369.62748098373413,None,369.62748098373413,None,-1,-1,1,True,262.7706527709961,703.2806873321533,left,372.48589396476746,None,pilot2,icub,clamp,2021_Dec_20_1209,exp,2021.2.3,59.930100905030386,
right,go,0,0,0,0,8,3,51,3,372.99532413482666,None,1,0.7628800868988037,372.99532413482666,None,373.84404611587524,None,374.8614511489868,375.2175250053406,374.8614511489868,375.2175250053406,373.84404611587524,None,373.84404611587524,None,373.84404611587524,None,-1,-1,1,True,305.06443977355957,774.0075588226318,right,376.8128640651703,None,pilot2,icub,clamp,2021_Dec_20_1209,exp,2021.2.3,59.930100905030386,
right,stop,0,0,0,0,8,4,52,5,377.31981897354126,None,1,0.6175398826599121,377.31981897354126,None,378.04873514175415,None,379.04799699783325,379.39471101760864,379.04799699783325,379.39471101760864,378.04873514175415,None,378.04873514175415,None,378.04873514175415,None,950,800,0,True,284.0161323547363,924.8833656311035,right,381.16585302352905,None,pilot2,icub,clamp,2021_Dec_20_1209,exp,2021.2.3,59.930100905030386,
right,stop,0,0,0,0,8,5,53,5,381.69102907180786,None,1,1.7240540981292725,381.69102907180786,None,383.53047800064087,None,384.54079604148865,384.8996720314026,384.54079604148865,384.8996720314026,383.53047800064087,None,383.53047800064087,None,383.53047800064087,None,950,750,1,True,270.0023651123047,-1.0,-1,388.7032880783081,None,pilot2,icub,clamp,2021_Dec_20_1209,exp,2021.2.3,59.930100905030386,
left,go,0,0,0,0,9,0,54,0,389.1954309940338,None,1,0.47034287452697754,389.1954309940338,None,389.74419808387756,None,390.7585520744324,391.1029541492462,390.7585520744324,391.1029541492462,389.74419808387756,None,389.74419808387756,None,389.74419808387756,None,-1,-1,1,True,260.45942306518555,1386.0578536987305,left,393.2690019607544,None,pilot2,icub,clamp,2021_Dec_20_1209,exp,2021.2.3,59.930100905030386,
right,stop,0,0,0,0,9,1,55,5,393.7860481739044,None,1,0.642327070236206,393.7860481739044,None,394.5136921405792,None,395.530974149704,395.86707401275635,395.530974149704,395.86707401275635,394.5136921405792,None,394.5136921405792,None,394.5136921405792,None,950,800,1,True,270.6730365753174,-1.0,-1,399.664803981781,None,pilot2,icub,clamp,2021_Dec_20_1209,exp,2021.2.3,59.930100905030386,
left,go,0,0,0,0,9,2,56,0,400.19462299346924,None,1,0.385361909866333,400.19462299346924,None,400.68279910087585,None,401.65225315093994,402.00752210617065,401.65225315093994,402.00752210617065,400.68279910087585,None,400.68279910087585,None,400.68279910087585,None,-1,-1,1,True,252.50649452209473,1494.4651126861572,left,404.32064414024353,None,pilot2,icub,clamp,2021_Dec_20_1209,exp,2021.2.3,59.930100905030386,
left,go,0,0,0,0,9,3,57,1,404.8251130580902,None,1,0.6598451137542725,404.8251130580902,None,405.61390018463135,None,406.6137580871582,406.97568917274475,406.6137580871582,406.97568917274475,405.61390018463135,None,405.61390018463135,None,405.61390018463135,None,-1,-1,1,True,242.81978607177734,991.1198616027832,left,408.73363399505615,None,pilot2,icub,clamp,2021_Dec_20_1209,exp,2021.2.3,59.930100905030386,
left,go,0,0,0,0,9,4,58,1,409.2486710548401,None,1,2.0115458965301514,409.2486710548401,None,411.33557295799255,None,412.36776399612427,412.7064440250397,412.36776399612427,412.7064440250397,411.33557295799255,None,411.33557295799255,None,411.33557295799255,None,-1,-1,1,True,335.7393741607666,1373.2059001922607,left,414.94196796417236,None,pilot2,icub,clamp,2021_Dec_20_1209,exp,2021.2.3,59.930100905030386,
left,go,0,0,0,0,9,5,59,0,415.4432830810547,None,1,0.44360899925231934,415.4432830810547,None,415.98904395103455,None,417.0206241607666,417.37837505340576,417.0206241607666,417.37837505340576,415.98904395103455,None,415.98904395103455,None,415.98904395103455,None,-1,-1,1,True,203.12881469726562,1086.6527557373047,left,419.1858410835266,None,pilot2,icub,clamp,2021_Dec_20_1209,exp,2021.2.3,59.930100905030386,
right,go,0,0,0,0,10,0,60,4,419.70085406303406,None,1,4.743155002593994,419.70085406303406,None,424.5640959739685,None,425.59216809272766,425.95128202438354,425.59216809272766,425.95128202438354,424.5640959739685,None,424.5640959739685,None,424.5640959739685,None,-1,-1,1,True,251.39331817626953,340.224027633667,right,427.03163409233093,None,pilot2,icub,clamp,2021_Dec_20_1209,exp,2021.2.3,59.930100905030386,
right,go,0,0,0,0,10,1,61,4,427.5651681423187,None,1,0.36797189712524414,427.5651681423187,None,428.04423809051514,None,429.0729429721832,429.4164471626282,429.0729429721832,429.4164471626282,428.04423809051514,None,428.04423809051514,None,428.04423809051514,None,,,0,False,-1.0,-1.0,-1,429.81960916519165,None,pilot2,icub,clamp,2021_Dec_20_1209,exp,2021.2.3,59.930100905030386,
right,go,0,0,0,0,10,2,62,4,430.3122329711914,None,1,1.0045568943023682,430.3122329711914,None,431.4168381690979,None,432.4362909793854,432.7910780906677,432.4362909793854,432.7910780906677,431.4168381690979,None,431.4168381690979,None,431.4168381690979,None,-1,-1,1,True,246.03962898254395,575.3922462463379,right,434.13647413253784,None,pilot2,icub,clamp,2021_Dec_20_1209,exp,2021.2.3,59.930100905030386,
left,go,0,0,0,0,10,3,63,1,434.6423270702362,None,1,0.4649529457092285,434.6423270702362,None,435.1877691745758,None,436.21206307411194,436.5566601753235,436.21206307411194,436.5566601753235,435.1877691745758,None,435.1877691745758,None,435.1877691745758,None,-1,-1,1,True,182.2044849395752,531.9533348083496,left,437.7914180755615,None,pilot2,icub,clamp,2021_Dec_20_1209,exp,2021.2.3,59.930100905030386,
left,go,0,0,0,0,10,4,64,0,438.30309009552,None,1,0.4262411594390869,438.30309009552,None,438.8435261249542,None,439.83754110336304,440.1941499710083,439.83754110336304,440.1941499710083,438.8435261249542,None,438.8435261249542,None,438.8435261249542,None,-1,-1,1,True,242.73967742919922,690.8907890319824,left,441.65662598609924,None,pilot2,icub,clamp,2021_Dec_20_1209,exp,2021.2.3,59.930100905030386,
right,go,0,0,0,0,10,5,65,3,442.17390418052673,None,1,0.334197998046875,442.17390418052673,None,442.5836160182953,None,443.60397696495056,443.9615831375122,443.60397696495056,443.9615831375122,442.5836160182953,None,442.5836160182953,None,442.5836160182953,None,-1,-1,1,True,237.53762245178223,534.1286659240723,right,445.25836396217346,None,pilot2,icub,clamp,2021_Dec_20_1209,exp,2021.2.3,59.930100905030386,
left,go,0,0,0,0,11,0,66,0,445.7818410396576,None,1,0.31273913383483887,445.7818410396576,None,446.19669699668884,None,447.22321105003357,447.57257604599,447.22321105003357,447.57257604599,446.19669699668884,None,446.19669699668884,None,446.19669699668884,None,-1,-1,1,True,229.63476181030273,518.439769744873,left,448.83756399154663,None,pilot2,icub,clamp,2021_Dec_20_1209,exp,2021.2.3,59.930100905030386,
right,go,0,0,0,0,11,1,67,3,449.35718512535095,None,1,0.4878220558166504,449.35718512535095,None,449.95951199531555,None,450.9850871562958,451.3251049518585,450.9850871562958,451.3251049518585,449.95951199531555,None,449.95951199531555,None,449.95951199531555,None,-1,-1,1,True,241.81342124938965,521.9268798828125,right,452.6158449649811,None,pilot2,icub,clamp,2021_Dec_20_1209,exp,2021.2.3,59.930100905030386,
right,go,0,0,0,0,11,2,68,3,453.1273741722107,None,1,0.36472082138061523,453.1273741722107,None,453.6072680950165,None,454.6246840953827,454.9742000102997,454.6246840953827,454.9742000102997,453.6072680950165,None,453.6072680950165,None,453.6072680950165,None,-1,-1,1,True,266.6804790496826,506.01935386657715,right,456.27700209617615,None,pilot2,icub,clamp,2021_Dec_20_1209,exp,2021.2.3,59.930100905030386,
right,go,0,0,0,0,11,3,69,4,456.7942781448364,None,1,0.49172091484069824,456.7942781448364,None,457.3958501815796,None,458.4114410877228,458.7562291622162,458.4114410877228,458.7562291622162,457.3958501815796,None,457.3958501815796,None,457.3958501815796,None,-1,-1,1,True,97.7637767791748,507.0767402648926,right,459.87855410575867,None,pilot2,icub,clamp,2021_Dec_20_1209,exp,2021.2.3,59.930100905030386,
left,go,0,0,0,0,11,4,70,0,460.38105607032776,None,1,0.37601304054260254,460.38105607032776,None,460.86024808883667,None,461.87194299697876,462.22137117385864,461.87194299697876,462.22137117385864,460.86024808883667,None,460.86024808883667,None,460.86024808883667,None,-1,-1,1,True,261.93690299987793,519.7923183441162,left,463.53348207473755,None,pilot2,icub,clamp,2021_Dec_20_1209,exp,2021.2.3,59.930100905030386,
right,stop,0,0,0,0,11,5,71,5,464.04987502098083,None,1,0.47225499153137207,464.04987502098083,None,464.65026211738586,None,465.6719491481781,466.0213141441345,465.6719491481781,466.0213141441345,464.65026211738586,None,464.65026211738586,None,464.65026211738586,None,950,850,0,True,241.42169952392578,515.4628753662109,right,467.3044521808624,None,pilot2,icub,clamp,2021_Dec_20_1209,exp,2021.2.3,59.930100905030386,
right,stop,0,0,0,0,12,0,72,5,467.8142330646515,None,1,0.7037489414215088,467.8142330646515,None,468.603276014328,None,469.63160610198975,469.99672508239746,469.63160610198975,469.99672508239746,468.603276014328,None,468.603276014328,None,468.603276014328,None,950,800,0,True,262.25924491882324,522.3581790924072,right,471.2680621147156,None,pilot2,icub,clamp,2021_Dec_20_1209,exp,2021.2.3,59.930100905030386,
left,go,0,0,0,0,12,1,73,1,471.7845711708069,None,1,0.6486949920654297,471.7845711708069,None,472.51410698890686,None,473.52279806137085,473.87587809562683,473.52279806137085,473.87587809562683,472.51410698890686,None,472.51410698890686,None,472.51410698890686,None,-1,-1,1,True,263.8530731201172,553.6630153656006,left,475.22723412513733,None,pilot2,icub,clamp,2021_Dec_20_1209,exp,2021.2.3,59.930100905030386,
left,go,0,0,0,0,12,2,74,1,475.74416303634644,None,1,0.32297801971435547,475.74416303634644,None,476.16803097724915,None,477.1758031845093,477.5246350765228,477.1758031845093,477.5246350765228,476.16803097724915,None,476.16803097724915,None,476.16803097724915,None,-1,-1,1,True,287.2178554534912,504.18639183044434,left,478.84662413597107,None,pilot2,icub,clamp,2021_Dec_20_1209,exp,2021.2.3,59.930100905030386,
right,stop,0,0,0,0,12,3,75,5,479.36215806007385,None,1,0.3298470973968506,479.36215806007385,None,479.78276014328003,None,480.8095450401306,481.1703231334686,480.8095450401306,481.1703231334686,479.78276014328003,None,479.78276014328003,None,479.78276014328003,None,950,750,0,True,255.21016120910645,544.5704460144043,right,482.4543960094452,None,pilot2,icub,clamp,2021_Dec_20_1209,exp,2021.2.3,59.930100905030386,
left,stop,0,0,0,0,12,4,76,2,482.9594900608063,None,1,0.31866002082824707,482.9594900608063,None,483.37860012054443,None,484.3789360523224,484.73053216934204,484.3789360523224,484.73053216934204,483.37860012054443,None,483.37860012054443,None,483.37860012054443,None,950,700,0,True,284.651517868042,496.7052936553955,left,486.04070806503296,None,pilot2,icub,clamp,2021_Dec_20_1209,exp,2021.2.3,59.930100905030386,
left,go,0,0,0,0,12,5,77,0,486.5529270172119,None,1,0.5124461650848389,486.5529270172119,None,487.15614795684814,None,488.14353799819946,488.49751901626587,488.14353799819946,488.49751901626587,487.15614795684814,None,487.15614795684814,None,487.15614795684814,None,-1,-1,1,True,273.93078804016113,558.2869052886963,left,489.89864802360535,None,pilot2,icub,clamp,2021_Dec_20_1209,exp,2021.2.3,59.930100905030386,
left,go,1,0,1,0,0,0,0,1,559.3240599632263,None,1,2.0297579765319824,559.3240599632263,None,561.43443608284,None,562.4340500831604,562.780914068222,562.4340500831604,562.780914068222,561.43443608284,None,561.43443608284,None,561.43443608284,None,-1,-1,1,True,260.36739349365234,586.0452651977539,left,564.1867079734802,None,pilot2,icub,clamp,2021_Dec_20_1209,exp,2021.2.3,59.930100905030386,
right,go,1,0,1,0,0,1,1,4,564.7187571525574,None,1,0.7471399307250977,564.7187571525574,None,565.5661120414734,None,566.5741450786591,566.9195721149445,566.5741450786591,566.9195721149445,565.5661120414734,None,565.5661120414734,None,565.5661120414734,None,-1,-1,1,True,243.70241165161133,515.155553817749,right,568.196681022644,None,pilot2,icub,clamp,2021_Dec_20_1209,exp,2021.2.3,59.930100905030386,
right,go,1,0,1,0,0,2,2,4,568.7154941558838,None,1,0.6184771060943604,568.7154941558838,None,569.4430260658264,None,570.4309070110321,570.781681060791,570.4309070110321,570.781681060791,569.4430260658264,None,569.4430260658264,None,569.4430260658264,None,-1,-1,1,True,190.01054763793945,489.66503143310547,right,572.0277600288391,None,pilot2,icub,clamp,2021_Dec_20_1209,exp,2021.2.3,59.930100905030386,
left,go,1,0,1,0,0,3,3,0,572.5386121273041,None,1,0.5805330276489258,572.5386121273041,None,573.2006230354309,None,574.2130789756775,574.570760011673,574.2130789756775,574.570760011673,573.2006230354309,None,573.2006230354309,None,573.2006230354309,None,-1,-1,1,True,236.436128616333,430.0417900085449,left,575.7573089599609,None,pilot2,icub,clamp,2021_Dec_20_1209,exp,2021.2.3,59.930100905030386,
left,go,1,0,1,0,0,4,4,1,576.267872095108,None,1,0.3833911418914795,576.267872095108,None,576.7470331192017,None,577.777745962143,578.1321430206299,577.777745962143,578.1321430206299,576.7470331192017,None,576.7470331192017,None,576.7470331192017,None,-1,-1,1,True,250.33807754516602,569.0491199493408,left,579.4416220188141,None,pilot2,icub,clamp,2021_Dec_20_1209,exp,2021.2.3,59.930100905030386,
left,stop,1,0,1,0,0,5,5,2,579.9648239612579,None,1,0.39050793647766113,579.9648239612579,None,580.4435019493103,None,581.4695119857788,581.8315770626068,581.4695119857788,581.8315770626068,580.4435019493103,None,580.4435019493103,None,580.4435019493103,None,900,700,0,True,234.40957069396973,528.7961959838867,left,583.0846509933472,None,pilot2,icub,clamp,2021_Dec_20_1209,exp,2021.2.3,59.930100905030386,
right,go,1,0,1,0,1,0,6,4,583.5942850112915,None,1,0.4656679630279541,583.5942850112915,None,584.1355271339417,None,585.1354081630707,585.4945170879364,585.1354081630707,585.4945170879364,584.1355271339417,None,584.1355271339417,None,584.1355271339417,None,-1,-1,1,True,291.78333282470703,526.2906551361084,right,586.8326151371002,None,pilot2,icub,clamp,2021_Dec_20_1209,exp,2021.2.3,59.930100905030386,
left,stop,1,0,1,0,1,1,7,2,587.3507521152496,None,1,0.3820459842681885,587.3507521152496,None,587.8326489925385,None,588.8473570346832,589.1964931488037,588.8473570346832,589.1964931488037,587.8326489925385,None,587.8326489925385,None,587.8326489925385,None,850,700,0,True,261.9919776916504,509.19485092163086,left,590.5047399997711,None,pilot2,icub,clamp,2021_Dec_20_1209,exp,2021.2.3,59.930100905030386,
right,go,1,0,1,0,1,2,8,4,591.0043261051178,None,1,0.41959190368652344,591.0043261051178,None,591.542366027832,None,592.5479340553284,592.8983340263367,592.5479340553284,592.8983340263367,591.542366027832,None,591.542366027832,None,591.542366027832,None,-1,-1,1,True,217.4515724182129,488.0852699279785,right,594.1305539608002,None,pilot2,icub,clamp,2021_Dec_20_1209,exp,2021.2.3,59.930100905030386,
right,stop,1,0,1,0,1,3,9,5,594.6375601291656,None,1,0.3949310779571533,594.6375601291656,None,595.1179211139679,None,596.1385350227356,596.5041971206665,596.1385350227356,596.5041971206665,595.1179211139679,None,595.1179211139679,None,595.1179211139679,None,800,700,0,True,250.43582916259766,565.9377574920654,right,597.8142690658569,None,pilot2,icub,clamp,2021_Dec_20_1209,exp,2021.2.3,59.930100905030386,
left,stop,1,0,1,0,1,4,10,2,598.3327491283417,None,1,0.3389880657196045,598.3327491283417,None,598.7887551784515,None,599.8067791461945,600.175488948822,599.8067791461945,600.175488948822,598.7887551784515,None,598.7887551784515,None,598.7887551784515,None,800,650,0,True,145.82157135009766,509.1404914855957,left,601.319354057312,None,pilot2,icub,clamp,2021_Dec_20_1209,exp,2021.2.3,59.930100905030386,
right,stop,1,0,1,0,1,5,11,5,601.825394153595,None,1,0.33966803550720215,601.825394153595,None,602.2457580566406,None,603.2593879699707,603.6220941543579,603.2593879699707,603.6220941543579,602.2457580566406,None,602.2457580566406,None,602.2457580566406,None,750,650,0,True,212.6293182373047,502.4111270904541,right,604.8633880615234,None,pilot2,icub,clamp,2021_Dec_20_1209,exp,2021.2.3,59.930100905030386,
right,go,1,0,1,0,2,0,12,4,605.3965210914612,None,1,0.29041218757629395,605.3965210914612,None,605.8144471645355,None,606.8088371753693,607.1532101631165,606.8088371753693,607.1532101631165,605.8144471645355,None,605.8144471645355,None,605.8144471645355,None,-1,-1,1,True,245.6669807434082,571.9790458679199,right,608.5294060707092,None,pilot2,icub,clamp,2021_Dec_20_1209,exp,2021.2.3,59.930100905030386,
right,go,1,0,1,0,2,1,13,4,609.0308339595795,None,1,0.4070169925689697,609.0308339595795,None,609.5711960792542,None,610.5877389907837,610.9395339488983,610.5877389907837,610.9395339488983,609.5711960792542,None,609.5711960792542,None,609.5711960792542,None,-1,-1,0,False,46.7381477355957,517.3912048339844,left,612.0387051105499,None,pilot2,icub,clamp,2021_Dec_20_1209,exp,2021.2.3,59.930100905030386,
right,go,1,0,1,0,2,2,14,3,612.5553841590881,None,1,0.3909718990325928,612.5553841590881,None,613.0325510501862,None,614.028028011322,614.3855049610138,614.028028011322,614.3855049610138,613.0325510501862,None,613.0325510501862,None,613.0325510501862,None,-1,-1,1,True,270.51520347595215,616.17112159729,right,615.7983491420746,None,pilot2,icub,clamp,2021_Dec_20_1209,exp,2021.2.3,59.930100905030386,
right,stop,1,0,1,0,2,3,15,5,616.3154859542847,None,1,0.31258201599121094,616.3154859542847,None,616.7342340946198,None,617.7455971240997,618.1106050014496,617.7455971240997,618.1106050014496,616.7342340946198,None,616.7342340946198,None,616.7342340946198,None,750,600,0,True,268.1849002838135,485.6448173522949,right,619.4001381397247,None,pilot2,icub,clamp,2021_Dec_20_1209,exp,2021.2.3,59.930100905030386,
right,go,1,0,1,0,2,4,16,3,619.9133021831512,None,1,0.37347412109375,619.9133021831512,None,620.3924851417542,None,621.4081871509552,621.7670590877533,621.4081871509552,621.7670590877533,620.3924851417542,None,620.3924851417542,None,620.3924851417542,None,-1,-1,1,True,246.4151382446289,508.62741470336914,right,623.0384831428528,None,pilot2,icub,clamp,2021_Dec_20_1209,exp,2021.2.3,59.930100905030386,
left,go,1,0,1,0,2,5,17,1,623.5545930862427,None,1,0.36110615730285645,623.5545930862427,None,624.036504983902,None,625.0297720432281,625.3869149684906,625.0297720432281,625.3869149684906,624.036504983902,None,624.036504983902,None,624.036504983902,None,-1,-1,1,True,230.03149032592773,434.3140125274658,left,626.5770361423492,None,pilot2,icub,clamp,2021_Dec_20_1209,exp,2021.2.3,59.930100905030386,
left,stop,1,0,1,0,3,0,18,2,627.0946290493011,None,1,0.2617020606994629,627.0946290493011,None,627.4519140720367,None,628.4417750835419,628.8015520572662,628.4417750835419,628.8015520572662,627.4519140720367,None,627.4519140720367,None,627.4519140720367,None,750,550,0,True,279.03079986572266,487.2167110443115,left,630.1021001338959,None,pilot2,icub,clamp,2021_Dec_20_1209,exp,2021.2.3,59.930100905030386,
right,stop,1,0,1,0,3,1,19,5,630.6105179786682,None,1,0.23140788078308105,630.6105179786682,None,630.965903043747,None,631.9958491325378,632.3549439907074,631.9958491325378,632.3549439907074,630.965903043747,None,630.965903043747,None,630.965903043747,None,700,550,0,True,249.40109252929688,461.9030952453613,right,633.5547320842743,None,pilot2,icub,clamp,2021_Dec_20_1209,exp,2021.2.3,59.930100905030386,
right,stop,1,0,1,0,3,2,20,5,634.0680639743805,None,1,0.27281880378723145,634.0680639743805,None,634.4264221191406,None,635.4413461685181,635.7872879505157,635.4413461685181,635.7872879505157,634.4264221191406,None,634.4264221191406,None,634.4264221191406,None,700,500,0,True,250.84710121154785,518.9769268035889,right,637.0755090713501,None,pilot2,icub,clamp,2021_Dec_20_1209,exp,2021.2.3,59.930100905030386,
left,go,1,0,1,0,3,3,21,0,637.5760900974274,None,1,0.2255852222442627,637.5760900974274,None,637.9292550086975,None,638.9245610237122,639.2751290798187,638.9245610237122,639.2751290798187,637.9292550086975,None,637.9292550086975,None,637.9292550086975,None,-1,-1,1,True,249.4361400604248,496.92630767822266,left,640.5545301437378,None,pilot2,icub,clamp,2021_Dec_20_1209,exp,2021.2.3,59.930100905030386,
right,go,1,0,1,0,3,4,22,3,641.0738201141357,None,1,0.2531771659851074,641.0738201141357,None,641.4340081214905,None,642.4594390392303,642.8130700588226,642.4594390392303,642.8130700588226,641.4340081214905,None,641.4340081214905,None,641.4340081214905,None,-1,-1,1,True,242.74253845214844,428.67136001586914,right,644.017373085022,None,pilot2,icub,clamp,2021_Dec_20_1209,exp,2021.2.3,59.930100905030386,
right,go,1,0,1,0,3,5,23,3,644.5270981788635,None,1,0.2506749629974365,644.5270981788635,None,644.8835990428925,None,645.90292096138,646.2563400268555,645.90292096138,646.2563400268555,644.8835990428925,None,644.8835990428925,None,644.8835990428925,None,-1,-1,1,True,164.69264030456543,430.68718910217285,right,647.3816061019897,None,pilot2,icub,clamp,2021_Dec_20_1209,exp,2021.2.3,59.930100905030386,
right,go,1,0,1,0,4,0,24,4,647.8983340263367,None,1,0.15736699104309082,647.8983340263367,None,648.1310360431671,None,649.1639621257782,649.5125181674957,649.1639621257782,649.5125181674957,648.1310360431671,None,648.1310360431671,None,648.1310360431671,None,-1,-1,1,True,326.4789581298828,433.7282180786133,right,650.7626700401306,None,pilot2,icub,clamp,2021_Dec_20_1209,exp,2021.2.3,59.930100905030386,
left,stop,1,0,1,0,4,1,25,2,651.2804000377655,None,1,0.24539685249328613,651.2804000377655,None,651.6350681781769,None,652.658576965332,652.9971389770508,652.658576965332,652.9971389770508,651.6350681781769,None,651.6350681781769,None,651.6350681781769,None,700,450,0,True,292.4628257751465,437.1335506439209,left,654.2591309547424,None,pilot2,icub,clamp,2021_Dec_20_1209,exp,2021.2.3,59.930100905030386,
left,stop,1,0,1,0,4,2,26,2,654.7624590396881,None,1,0.2337169647216797,654.7624590396881,None,655.1083850860596,None,656.1091320514679,656.4627101421356,656.1091320514679,656.4627101421356,655.1083850860596,None,655.1083850860596,None,655.1083850860596,None,650,450,0,True,302.9944896697998,501.15466117858887,left,657.7985191345215,None,pilot2,icub,clamp,2021_Dec_20_1209,exp,2021.2.3,59.930100905030386,
left,go,1,0,1,0,4,3,27,0,658.301265001297,None,1,0.27031517028808594,658.301265001297,None,658.6408331394196,None,659.6466801166534,660.0004270076752,659.6466801166534,660.0004270076752,658.6408331394196,None,658.6408331394196,None,658.6408331394196,None,-1,-1,1,True,281.2049388885498,507.5814723968506,left,661.3246619701385,None,pilot2,icub,clamp,2021_Dec_20_1209,exp,2021.2.3,59.930100905030386,
left,go,1,0,1,0,4,4,28,0,661.8547320365906,None,1,0.271543025970459,661.8547320365906,None,662.2116990089417,None,663.2069790363312,663.549947977066,663.2069790363312,663.549947977066,662.2116990089417,None,662.2116990089417,None,662.2116990089417,None,-1,-1,1,True,276.02458000183105,421.9374656677246,left,664.8163959980011,None,pilot2,icub,clamp,2021_Dec_20_1209,exp,2021.2.3,59.930100905030386,
left,go,1,0,1,0,4,5,29,0,665.3257660865784,None,1,0.3860971927642822,665.3257660865784,None,665.8077471256256,None,666.811115026474,667.1500170230865,666.811115026474,667.1500170230865,665.8077471256256,None,665.8077471256256,None,665.8077471256256,None,-1,-1,1,True,293.05505752563477,468.247652053833,left,668.4420940876007,None,pilot2,icub,clamp,2021_Dec_20_1209,exp,2021.2.3,59.930100905030386,
left,stop,1,0,1,0,5,0,30,2,668.9458141326904,None,1,0.34409499168395996,668.9458141326904,None,669.4228100776672,None,670.4548320770264,670.8093280792236,670.4548320770264,670.8093280792236,669.4228100776672,None,669.4228100776672,None,669.4228100776672,None,600,450,0,True,276.9885063171387,469.3722724914551,left,672.0842130184174,None,pilot2,icub,clamp,2021_Dec_20_1209,exp,2021.2.3,59.930100905030386,
left,stop,1,0,1,0,5,1,31,2,672.6143841743469,None,1,0.27361488342285156,672.6143841743469,None,672.9734179973602,None,673.9736289978027,674.3234090805054,673.9736289978027,674.3234090805054,672.9734179973602,None,672.9734179973602,None,672.9734179973602,None,550,450,0,True,297.1773147583008,485.8567714691162,left,675.6354629993439,None,pilot2,icub,clamp,2021_Dec_20_1209,exp,2021.2.3,59.930100905030386,
left,go,1,0,1,0,5,2,32,1,676.1526291370392,None,1,0.31632494926452637,676.1526291370392,None,676.5691449642181,None,677.5848259925842,677.944267988205,677.5848259925842,677.944267988205,676.5691449642181,None,676.5691449642181,None,676.5691449642181,None,-1,-1,1,True,205.8250904083252,484.94791984558105,left,679.1674470901489,None,pilot2,icub,clamp,2021_Dec_20_1209,exp,2021.2.3,59.930100905030386,
right,go,1,0,1,0,5,3,33,3,679.6875879764557,None,1,0.2851378917694092,679.6875879764557,None,680.0431940555573,None,681.057587146759,681.4159460067749,681.057587146759,681.4159460067749,680.0431940555573,None,680.0431940555573,None,680.0431940555573,None,-1,-1,1,True,273.7317085266113,496.5546131134033,right,682.7063381671906,None,pilot2,icub,clamp,2021_Dec_20_1209,exp,2021.2.3,59.930100905030386,
right,go,1,0,1,0,5,4,34,4,683.2201421260834,None,1,0.2457900047302246,683.2201421260834,None,683.5760910511017,None,684.5785970687866,684.9281959533691,684.5785970687866,684.9281959533691,683.5760910511017,None,683.5760910511017,None,683.5760910511017,None,-1,-1,1,True,143.85533332824707,506.7138671875,right,686.1224839687347,None,pilot2,icub,clamp,2021_Dec_20_1209,exp,2021.2.3,59.930100905030386,
left,go,1,0,1,0,5,5,35,0,686.6244971752167,None,1,0.259246826171875,686.6244971752167,None,686.9840459823608,None,688.0032470226288,688.3584389686584,688.0032470226288,688.3584389686584,686.9840459823608,None,686.9840459823608,None,686.9840459823608,None,-1,-1,1,True,88.2260799407959,434.6616268157959,left,689.4100451469421,None,pilot2,icub,clamp,2021_Dec_20_1209,exp,2021.2.3,59.930100905030386,
right,go,1,0,1,0,6,0,36,3,689.9135730266571,None,1,0.3854649066925049,689.9135730266571,None,690.3937940597534,None,691.4201180934906,691.7700090408325,691.4201180934906,691.7700090408325,690.3937940597534,None,690.3937940597534,None,690.3937940597534,None,-1,-1,1,True,277.646541595459,491.030216217041,right,693.0653131008148,None,pilot2,icub,clamp,2021_Dec_20_1209,exp,2021.2.3,59.930100905030386,
right,stop,1,0,1,0,6,1,37,5,693.5822350978851,None,1,0.27743101119995117,693.5822350978851,None,693.9400720596313,None,694.9644629955292,695.325464963913,694.9644629955292,695.325464963913,693.9400720596313,None,693.9400720596313,None,693.9400720596313,None,500,450,0,True,266.8190002441406,446.7916488647461,right,696.5626630783081,None,pilot2,icub,clamp,2021_Dec_20_1209,exp,2021.2.3,59.930100905030386,
right,stop,1,0,1,0,6,2,38,5,697.0716731548309,None,1,0.21233201026916504,697.0716731548309,None,697.3693051338196,None,698.3770201206207,698.7254259586334,698.3770201206207,698.7254259586334,697.3693051338196,None,697.3693051338196,None,697.3693051338196,None,500,400,0,True,160.83645820617676,397.9804515838623,right,699.8150231838226,None,pilot2,icub,clamp,2021_Dec_20_1209,exp,2021.2.3,59.930100905030386,
right,go,1,0,1,0,6,3,39,4,700.3180601596832,None,1,0.2288811206817627,700.3180601596832,None,700.6692969799042,None,701.673063993454,702.0408179759979,701.673063993454,702.0408179759979,700.6692969799042,None,700.6692969799042,None,700.6692969799042,None,-1,-1,1,True,228.40356826782227,436.4602565765381,right,703.2317490577698,None,pilot2,icub,clamp,2021_Dec_20_1209,exp,2021.2.3,59.930100905030386,
left,stop,1,0,1,0,6,4,40,2,703.728443145752,None,1,0.21645903587341309,703.728443145752,None,704.0732519626617,None,705.0835421085358,705.4385721683502,705.0835421085358,705.4385721683502,704.0732519626617,None,704.0732519626617,None,704.0732519626617,None,500,350,0,True,254.50611114501953,455.2488327026367,left,706.6826219558716,None,pilot2,icub,clamp,2021_Dec_20_1209,exp,2021.2.3,59.930100905030386,
left,go,1,0,1,0,6,5,41,1,707.1902370452881,None,1,0.23047876358032227,707.1902370452881,None,707.5440740585327,None,708.5579581260681,708.8851749897003,708.5579581260681,708.8851749897003,707.5440740585327,None,707.5440740585327,None,707.5440740585327,None,-1,-1,1,True,270.96009254455566,465.01755714416504,left,710.1561579704285,None,pilot2,icub,clamp,2021_Dec_20_1209,exp,2021.2.3,59.930100905030386,
left,go,1,0,1,0,7,0,42,1,710.6731979846954,None,1,0.22547602653503418,710.6731979846954,None,710.9974110126495,None,711.9966731071472,712.3501131534576,711.9966731071472,712.3501131534576,710.9974110126495,None,710.9974110126495,None,710.9974110126495,None,-1,-1,1,True,253.34715843200684,469.3610668182373,left,713.6309831142426,None,pilot2,icub,clamp,2021_Dec_20_1209,exp,2021.2.3,59.930100905030386,
left,go,1,0,1,0,7,1,43,0,714.1583571434021,None,1,0.18231797218322754,714.1583571434021,None,714.4503290653229,None,715.4824850559235,715.8355610370636,715.4824850559235,715.8355610370636,714.4503290653229,None,714.4503290653229,None,714.4503290653229,None,-1,-1,1,True,216.27259254455566,395.3747749328613,left,716.9359760284424,None,pilot2,icub,clamp,2021_Dec_20_1209,exp,2021.2.3,59.930100905030386,
left,go,1,0,1,0,7,2,44,1,717.4489760398865,None,1,0.24369502067565918,717.4489760398865,None,717.8079659938812,None,718.8304550647736,719.1852769851685,718.8304550647736,719.1852769851685,717.8079659938812,None,717.8079659938812,None,717.8079659938812,None,,,0,False,-1.0,-1.0,-1,719.6554911136627,None,pilot2,icub,clamp,2021_Dec_20_1209,exp,2021.2.3,59.930100905030386,
right,go,1,0,1,0,7,3,45,3,720.176931142807,None,1,0.6698400974273682,720.176931142807,None,720.9596121311188,None,721.9676489830017,722.3138151168823,721.9676489830017,722.3138151168823,720.9596121311188,None,720.9596121311188,None,720.9596121311188,None,-1,-1,1,True,272.442102432251,359.23051834106445,right,723.4814319610596,None,pilot2,icub,clamp,2021_Dec_20_1209,exp,2021.2.3,59.930100905030386,
left,stop,1,0,1,0,7,4,46,2,723.9845440387726,None,1,0.30594682693481445,723.9845440387726,None,724.399955034256,None,725.4260430335999,725.7731909751892,725.4260430335999,725.7731909751892,724.399955034256,None,724.399955034256,None,724.399955034256,None,450,350,0,True,233.56223106384277,470.1342582702637,left,727.0024480819702,None,pilot2,icub,clamp,2021_Dec_20_1209,exp,2021.2.3,59.930100905030386,
left,go,1,0,1,0,7,5,47,1,727.5308570861816,None,1,0.2417140007019043,727.5308570861816,None,727.887088060379,None,728.882336139679,729.2458260059357,728.882336139679,729.2458260059357,727.887088060379,None,727.887088060379,None,727.887088060379,None,-1,-1,1,True,300.3091812133789,489.912748336792,left,730.5654091835022,None,pilot2,icub,clamp,2021_Dec_20_1209,exp,2021.2.3,59.930100905030386,
right,stop,1,0,1,0,8,0,48,5,731.0818431377411,None,1,0.1756889820098877,731.0818431377411,None,731.3740739822388,None,732.3751499652863,732.7316250801086,732.3751499652863,732.7316250801086,731.3740739822388,None,731.3740739822388,None,731.3740739822388,None,400,350,0,True,216.4595127105713,463.1526470184326,right,733.9404211044312,None,pilot2,icub,clamp,2021_Dec_20_1209,exp,2021.2.3,59.930100905030386,
right,go,1,0,1,0,8,1,49,3,734.4476330280304,None,1,0.2646918296813965,734.4476330280304,None,734.8010549545288,None,735.8251321315765,736.1799840927124,735.8251321315765,736.1799840927124,734.8010549545288,None,734.8010549545288,None,734.8010549545288,None,-1,-1,1,True,230.865478515625,434.3094825744629,right,737.3786730766296,None,pilot2,icub,clamp,2021_Dec_20_1209,exp,2021.2.3,59.930100905030386,
left,go,1,0,1,0,8,2,50,0,737.8967909812927,None,1,0.27890992164611816,737.8967909812927,None,738.3083670139313,None,739.3137381076813,739.6720941066742,739.3137381076813,739.6720941066742,738.3083670139313,None,738.3083670139313,None,738.3083670139313,None,-1,-1,1,True,247.17164039611816,474.6572971343994,left,740.9061801433563,None,pilot2,icub,clamp,2021_Dec_20_1209,exp,2021.2.3,59.930100905030386,
left,go,1,0,1,0,8,3,51,0,741.4378020763397,None,1,0.26384806632995605,741.4378020763397,None,741.7974710464478,None,742.8184790611267,743.1874380111694,742.8184790611267,743.1874380111694,741.7974710464478,None,741.7974710464478,None,741.7974710464478,None,-1,-1,1,True,259.97471809387207,466.48621559143066,left,744.4030590057373,None,pilot2,icub,clamp,2021_Dec_20_1209,exp,2021.2.3,59.930100905030386,
left,stop,1,0,1,0,8,4,52,2,744.9217021465302,None,1,0.30791401863098145,744.9217021465302,None,745.3390200138092,None,746.3473019599915,746.7056059837341,746.3473019599915,746.7056059837341,745.3390200138092,None,745.3390200138092,None,745.3390200138092,None,400,300,0,False,256.3350200653076,469.35486793518066,right,747.9591779708862,None,pilot2,icub,clamp,2021_Dec_20_1209,exp,2021.2.3,59.930100905030386,
left,go,1,0,1,0,8,5,53,1,748.4697771072388,None,1,0.2893331050872803,748.4697771072388,None,748.8865599632263,None,749.8791840076447,750.2323360443115,749.8791840076447,750.2323360443115,748.8865599632263,None,748.8865599632263,None,748.8865599632263,None,-1,-1,1,True,67.43717193603516,551.0783195495605,left,751.386078119278,None,pilot2,icub,clamp,2021_Dec_20_1209,exp,2021.2.3,59.930100905030386,
left,stop,1,0,1,0,9,0,54,2,751.9001619815826,None,1,0.2399280071258545,751.9001619815826,None,752.2537260055542,None,753.2860660552979,753.6356420516968,753.2860660552979,753.6356420516968,752.2537260055542,None,752.2537260055542,None,752.2537260055542,None,350,300,0,True,258.00013542175293,490.4594421386719,left,754.8782169818878,None,pilot2,icub,clamp,2021_Dec_20_1209,exp,2021.2.3,59.930100905030386,
left,stop,1,0,1,0,9,1,55,2,755.3962509632111,None,1,0.2834618091583252,755.3962509632111,None,755.7553009986877,None,756.7580530643463,757.1108691692352,756.7580530643463,757.1108691692352,755.7553009986877,None,755.7553009986877,None,755.7553009986877,None,300,300,0,True,78.8736343383789,467.58484840393066,left,758.2022340297699,None,pilot2,icub,clamp,2021_Dec_20_1209,exp,2021.2.3,59.930100905030386,
right,go,1,0,1,0,9,2,56,3,758.7153980731964,None,1,0.34700989723205566,758.7153980731964,None,759.1377739906311,None,760.1591210365295,760.5097551345825,760.1591210365295,760.5097551345825,759.1377739906311,None,759.1377739906311,None,759.1377739906311,None,-1,-1,1,True,233.37864875793457,495.0540065765381,right,761.7514171600342,None,pilot2,icub,clamp,2021_Dec_20_1209,exp,2021.2.3,59.930100905030386,
left,go,1,0,1,0,9,3,57,1,762.2713940143585,None,1,0.33717799186706543,762.2713940143585,None,762.6890189647675,None,763.7128839492798,764.0538561344147,763.7128839492798,764.0538561344147,762.6890189647675,None,762.6890189647675,None,762.6890189647675,None,-1,-1,1,True,233.2134246826172,523.5564708709717,left,765.3371641635895,None,pilot2,icub,clamp,2021_Dec_20_1209,exp,2021.2.3,59.930100905030386,
right,go,1,0,1,0,9,4,58,4,765.8625299930573,None,1,0.33518481254577637,765.8625299930573,None,766.2831180095673,None,767.277556180954,767.632511138916,767.277556180954,767.632511138916,766.2831180095673,None,766.2831180095673,None,766.2831180095673,None,-1,-1,1,True,246.95539474487305,457.99875259399414,right,768.8640141487122,None,pilot2,icub,clamp,2021_Dec_20_1209,exp,2021.2.3,59.930100905030386,
right,go,1,0,1,0,9,5,59,3,769.3837389945984,None,1,0.16790008544921875,769.3837389945984,None,769.6762139797211,None,770.6939921379089,771.0559661388397,770.6939921379089,771.0559661388397,769.6762139797211,None,769.6762139797211,None,769.6762139797211,None,-1,-1,1,True,230.27586936950684,517.6396369934082,right,772.3140189647675,None,pilot2,icub,clamp,2021_Dec_20_1209,exp,2021.2.3,59.930100905030386,
left,go,1,0,1,0,10,0,60,0,772.8177530765533,None,1,0.3176999092102051,772.8177530765533,None,773.2358660697937,None,774.2341561317444,774.5850839614868,774.2341561317444,774.5850839614868,773.2358660697937,None,773.2358660697937,None,773.2358660697937,None,-1,-1,1,True,99.84159469604492,548.1266975402832,left,775.7647321224213,None,pilot2,icub,clamp,2021_Dec_20_1209,exp,2021.2.3,59.930100905030386,
left,go,1,0,1,0,10,1,61,1,776.2644891738892,None,1,0.2781050205230713,776.2644891738892,None,776.6658079624176,None,777.667906999588,778.0292811393738,777.667906999588,778.0292811393738,776.6658079624176,None,776.6658079624176,None,776.6658079624176,None,-1,-1,1,True,295.94993591308594,614.5458221435547,left,779.4494180679321,None,pilot2,icub,clamp,2021_Dec_20_1209,exp,2021.2.3,59.930100905030386,
right,stop,1,0,1,0,10,2,62,5,779.9669930934906,None,1,0.45146894454956055,779.9669930934906,None,780.5040891170502,None,781.4993081092834,781.8524870872498,781.4993081092834,781.8524870872498,780.5040891170502,None,780.5040891170502,None,780.5040891170502,None,,,0,False,-1.0,-1.0,-1,782.3419389724731,None,pilot2,icub,clamp,2021_Dec_20_1209,exp,2021.2.3,59.930100905030386,
right,stop,1,0,1,0,10,3,63,5,782.8716101646423,None,1,0.707495927810669,782.8716101646423,None,783.6696650981903,None,784.6467020511627,785.009027004242,784.6467020511627,785.009027004242,783.6696650981903,None,783.6696650981903,None,783.6696650981903,None,250,300,1,True,318.6180591583252,-1.0,-1,788.8578140735626,None,pilot2,icub,clamp,2021_Dec_20_1209,exp,2021.2.3,59.930100905030386,
right,go,1,0,1,0,10,4,64,3,789.3507511615753,None,1,0.7993190288543701,789.3507511615753,None,790.27237200737,None,791.2911701202393,791.6349639892578,791.2911701202393,791.6349639892578,790.27237200737,None,790.27237200737,None,790.27237200737,None,-1,-1,1,True,242.46621131896973,462.4896049499512,right,792.8619949817657,None,pilot2,icub,clamp,2021_Dec_20_1209,exp,2021.2.3,59.930100905030386,
right,stop,1,0,1,0,10,5,65,5,793.3690400123596,None,1,0.46439099311828613,793.3690400123596,None,793.9139139652252,None,794.9099161624908,795.2548611164093,794.9099161624908,795.2548611164093,793.9139139652252,None,793.9139139652252,None,793.9139139652252,None,250,350,1,True,245.85747718811035,-1.0,-1,799.0459179878235,None,pilot2,icub,clamp,2021_Dec_20_1209,exp,2021.2.3,59.930100905030386,
right,stop,1,0,1,0,11,0,66,5,799.5782301425934,None,1,0.42972397804260254,799.5782301425934,None,800.1286971569061,None,801.1086189746857,801.4618029594421,801.1086189746857,801.4618029594421,800.1286971569061,None,800.1286971569061,None,800.1286971569061,None,250,400,0,True,198.48990440368652,487.49423027038574,right,802.7131941318512,None,pilot2,icub,clamp,2021_Dec_20_1209,exp,2021.2.3,59.930100905030386,
right,go,1,0,1,0,11,1,67,3,803.2004799842834,None,1,0.6208930015563965,803.2004799842834,None,803.9226961135864,None,804.9302051067352,805.2837510108948,804.9302051067352,805.2837510108948,803.9226961135864,None,803.9226961135864,None,803.9226961135864,None,-1,-1,1,True,250.26202201843262,613.3854389190674,right,806.6708619594574,None,pilot2,icub,clamp,2021_Dec_20_1209,exp,2021.2.3,59.930100905030386,
left,go,1,0,1,0,11,2,68,1,807.1847331523895,None,1,0.4199669361114502,807.1847331523895,None,807.7235140800476,None,808.7369010448456,809.0796229839325,808.7369010448456,809.0796229839325,807.7235140800476,None,807.7235140800476,None,807.7235140800476,None,-1,-1,1,True,270.4951763153076,510.56361198425293,left,810.4080469608307,None,pilot2,icub,clamp,2021_Dec_20_1209,exp,2021.2.3,59.930100905030386,
left,go,1,0,1,0,11,3,69,0,810.9155271053314,None,1,0.3027529716491699,810.9155271053314,None,811.3337819576263,None,812.3674840927124,812.7226250171661,812.3674840927124,812.7226250171661,811.3337819576263,None,811.3337819576263,None,811.3337819576263,None,-1,-1,1,True,77.19206809997559,689.079761505127,left,813.9762179851532,None,pilot2,icub,clamp,2021_Dec_20_1209,exp,2021.2.3,59.930100905030386,
left,go,1,0,1,0,11,4,70,0,814.4925851821899,None,1,0.3728678226470947,814.4925851821899,None,814.971354007721,None,815.9701449871063,816.3235700130463,815.9701449871063,816.3235700130463,814.971354007721,None,814.971354007721,None,814.971354007721,None,-1,-1,1,True,221.7087745666504,535.0127220153809,left,817.6024081707001,None,pilot2,icub,clamp,2021_Dec_20_1209,exp,2021.2.3,59.930100905030386,
right,go,1,0,1,0,11,5,71,4,818.1222841739655,None,1,0.33922386169433594,818.1222841739655,None,818.5418491363525,None,819.538253068924,819.8895239830017,819.538253068924,819.8895239830017,818.5418491363525,None,818.5418491363525,None,818.5418491363525,None,-1,-1,1,True,225.69036483764648,522.8748321533203,right,821.1583521366119,None,pilot2,icub,clamp,2021_Dec_20_1209,exp,2021.2.3,59.930100905030386,
right,stop,1,0,1,0,12,0,72,5,821.668673992157,None,1,0.2347707748413086,821.668673992157,None,822.0234131813049,None,823.0277299880981,823.3767759799957,823.0277299880981,823.3767759799957,822.0234131813049,None,822.0234131813049,None,822.0234131813049,None,250,350,0,True,70.09696960449219,551.7516136169434,right,824.5610361099243,None,pilot2,icub,clamp,2021_Dec_20_1209,exp,2021.2.3,59.930100905030386,
right,go,1,0,1,0,12,1,73,4,825.0715670585632,None,1,0.4228360652923584,825.0715670585632,None,825.6136040687561,None,826.6320459842682,826.9940190315247,826.6320459842682,826.9940190315247,825.6136040687561,None,825.6136040687561,None,825.6136040687561,None,-1,-1,1,True,193.45593452453613,591.2094116210938,right,828.2737381458282,None,pilot2,icub,clamp,2021_Dec_20_1209,exp,2021.2.3,59.930100905030386,
left,go,1,0,1,0,12,2,74,1,828.7995371818542,None,1,0.28639888763427734,828.7995371818542,None,829.2088580131531,None,830.2267770767212,830.572329044342,830.2267770767212,830.572329044342,829.2088580131531,None,829.2088580131531,None,829.2088580131531,None,,,0,False,3000.077247619629,-1.0,-1,834.1060931682587,None,pilot2,icub,clamp,2021_Dec_20_1209,exp,2021.2.3,59.930100905030386,
left,go,1,0,1,0,12,3,75,0,834.5996251106262,None,1,0.5526790618896484,834.5996251106262,None,835.2622511386871,None,836.2620160579681,836.6083781719208,836.2620160579681,836.6083781719208,835.2622511386871,None,835.2622511386871,None,835.2622511386871,None,-1,-1,1,True,277.5280475616455,537.4913215637207,left,837.9862241744995,None,pilot2,icub,clamp,2021_Dec_20_1209,exp,2021.2.3,59.930100905030386,
right,go,1,0,1,0,12,4,76,4,838.4888851642609,None,1,0.4234800338745117,838.4888851642609,None,839.0330259799957,None,840.037693977356,840.3979270458221,840.037693977356,840.3979270458221,839.0330259799957,None,839.0330259799957,None,839.0330259799957,None,-1,-1,1,True,262.5691890716553,524.7378349304199,right,841.7060489654541,None,pilot2,icub,clamp,2021_Dec_20_1209,exp,2021.2.3,59.930100905030386,
right,go,1,0,1,0,12,5,77,3,842.2179629802704,None,1,0.37651801109313965,842.2179629802704,None,842.7006680965424,None,843.7249009609222,844.0803220272064,843.7249009609222,844.0803220272064,842.7006680965424,None,842.7006680965424,None,842.7006680965424,None,-1,-1,1,True,257.049560546875,603.0550003051758,right,845.4714469909668,None,pilot2,icub,clamp,2021_Dec_20_1209,exp,2021.2.3,59.930100905030386,
right,go,2,0,2,0,0,0,0,3,857.7218561172485,None,1,14.91935110092163,857.7218561172485,None,872.757570028305,None,873.7677130699158,874.1223981380463,873.7677130699158,874.1223981380463,872.757570028305,None,872.757570028305,None,872.757570028305,None,-1,-1,1,True,248.96979331970215,562.7057552337646,right,875.4638409614563,None,pilot2,icub,clamp,2021_Dec_20_1209,exp,2021.2.3,59.930100905030386,
left,go,2,0,2,0,0,1,1,0,876.0000951290131,None,1,0.5601348876953125,876.0000951290131,None,876.6670000553131,None,877.660236120224,878.0194110870361,877.660236120224,878.0194110870361,876.6670000553131,None,876.6670000553131,None,876.6670000553131,None,-1,-1,1,True,248.2166290283203,512.6590728759766,left,879.3045279979706,None,pilot2,icub,clamp,2021_Dec_20_1209,exp,2021.2.3,59.930100905030386,
right,go,2,0,2,0,0,2,2,3,879.8328731060028,None,1,0.3929870128631592,879.8328731060028,None,880.3163561820984,None,881.3151171207428,881.6651310920715,881.3151171207428,881.6651310920715,880.3163561820984,None,880.3163561820984,None,880.3163561820984,None,-1,-1,1,True,96.42887115478516,578.0246257781982,right,882.8714699745178,None,pilot2,icub,clamp,2021_Dec_20_1209,exp,2021.2.3,59.930100905030386,
right,go,2,0,2,0,0,3,3,4,883.402223110199,None,1,0.31198906898498535,883.402223110199,None,883.8230781555176,None,884.8191530704498,885.1614220142365,884.8191530704498,885.1614220142365,883.8230781555176,None,883.8230781555176,None,883.8230781555176,None,,,0,False,3000.4048347473145,-1.0,-1,888.7346560955048,None,pilot2,icub,clamp,2021_Dec_20_1209,exp,2021.2.3,59.930100905030386,
left,stop,2,0,2,0,0,4,4,2,889.2276320457458,None,1,0.2758150100708008,889.2276320457458,None,889.5836081504822,None,890.6048879623413,890.960736989975,890.6048879623413,890.960736989975,889.5836081504822,None,889.5836081504822,None,889.5836081504822,None,250,300,1,True,277.89855003356934,-1.0,-1,894.77698802948,None,pilot2,icub,clamp,2021_Dec_20_1209,exp,2021.2.3,59.930100905030386,
left,stop,2,0,2,0,0,5,5,2,895.2707569599152,None,1,0.2851450443267822,895.2707569599152,None,895.635754108429,None,896.6449160575867,896.9977941513062,896.6449160575867,896.9977941513062,895.635754108429,None,895.635754108429,None,895.635754108429,None,300,300,1,True,235.87989807128906,-1.0,-1,900.763375043869,None,pilot2,icub,clamp,2021_Dec_20_1209,exp,2021.2.3,59.930100905030386,
left,go,2,0,2,0,1,0,6,1,901.2941861152649,None,1,0.3576478958129883,901.2941861152649,None,901.7817490100861,None,902.8051500320435,903.147390127182,902.8051500320435,903.147390127182,901.7817490100861,None,901.7817490100861,None,901.7817490100861,None,-1,-1,1,True,268.60547065734863,508.2576274871826,left,904.4467000961304,None,pilot2,icub,clamp,2021_Dec_20_1209,exp,2021.2.3,59.930100905030386,
right,stop,2,0,2,0,1,1,7,5,904.9577360153198,None,1,0.4116940498352051,904.9577360153198,None,905.4980299472809,None,906.5130560398102,906.8640620708466,906.5130560398102,906.8640620708466,905.4980299472809,None,905.4980299472809,None,905.4980299472809,None,350,300,1,True,271.58141136169434,-1.0,-1,910.6584420204163,None,pilot2,icub,clamp,2021_Dec_20_1209,exp,2021.2.3,59.930100905030386,
left,stop,2,0,2,0,1,2,8,2,911.1891901493073,None,1,0.3005359172821045,911.1891901493073,None,911.6153910160065,None,912.6422681808472,912.9970569610596,912.6422681808472,912.9970569610596,911.6153910160065,None,911.6153910160065,None,911.6153910160065,None,350,350,0,True,285.00843048095703,464.14780616760254,left,914.2384231090546,None,pilot2,icub,clamp,2021_Dec_20_1209,exp,2021.2.3,59.930100905030386,
right,go,2,0,2,0,1,3,9,3,914.7513921260834,None,1,0.45351195335388184,914.7513921260834,None,915.2958061695099,None,916.3252439498901,916.6916370391846,916.3252439498901,916.6916370391846,915.2958061695099,None,915.2958061695099,None,915.2958061695099,None,-1,-1,1,True,279.7355651855469,675.7693290710449,right,918.1387550830841,None,pilot2,icub,clamp,2021_Dec_20_1209,exp,2021.2.3,59.930100905030386,
left,stop,2,0,2,0,1,4,10,2,918.6462740898132,None,1,0.3411130905151367,918.6462740898132,None,919.0680551528931,None,920.0744969844818,920.4406671524048,920.0744969844818,920.4406671524048,919.0680551528931,None,919.0680551528931,None,919.0680551528931,None,300,350,1,True,300.75550079345703,-1.0,-1,924.2709929943085,None,pilot2,icub,clamp,2021_Dec_20_1209,exp,2021.2.3,59.930100905030386,
left,stop,2,0,2,0,1,5,11,2,924.8017971515656,None,1,0.33305811882019043,924.8017971515656,None,925.2278671264648,None,926.252984046936,926.6116011142731,926.252984046936,926.6116011142731,925.2278671264648,None,925.2278671264648,None,925.2278671264648,None,350,350,1,True,274.57475662231445,-1.0,-1,930.373232126236,None,pilot2,icub,clamp,2021_Dec_20_1209,exp,2021.2.3,59.930100905030386,
right,stop,2,0,2,0,2,0,12,5,930.9033851623535,None,1,0.2833108901977539,930.9033851623535,None,931.268944978714,None,932.2711191177368,932.6156239509583,932.2711191177368,932.6156239509583,931.268944978714,None,931.268944978714,None,931.268944978714,None,400,350,1,True,290.266752243042,-1.0,-1,936.4228110313416,None,pilot2,icub,clamp,2021_Dec_20_1209,exp,2021.2.3,59.930100905030386,
left,go,2,0,2,0,2,1,13,1,936.9545650482178,None,1,0.396151065826416,936.9545650482178,None,937.4422409534454,None,938.4659130573273,938.8252530097961,938.4659130573273,938.8252530097961,937.4422409534454,None,937.4422409534454,None,937.4422409534454,None,-1,-1,1,True,263.48066329956055,708.0235481262207,left,940.3074450492859,None,pilot2,icub,clamp,2021_Dec_20_1209,exp,2021.2.3,59.930100905030386,
right,go,2,0,2,0,2,2,14,4,940.8091630935669,None,1,0.5230720043182373,940.8091630935669,None,941.4126420021057,None,942.4348239898682,942.7788100242615,942.4348239898682,942.7788100242615,941.4126420021057,None,941.4126420021057,None,941.4126420021057,None,-1,-1,1,True,278.2890796661377,557.7425956726074,right,944.1436080932617,None,pilot2,icub,clamp,2021_Dec_20_1209,exp,2021.2.3,59.930100905030386,
left,go,2,0,2,0,2,3,15,1,944.64910197258,None,1,0.4162461757659912,944.64910197258,None,945.1879019737244,None,946.1918320655823,946.5489640235901,946.1918320655823,946.5489640235901,945.1879019737244,None,945.1879019737244,None,945.1879019737244,None,-1,-1,1,True,280.170202255249,564.8152828216553,left,947.9266250133514,None,pilot2,icub,clamp,2021_Dec_20_1209,exp,2021.2.3,59.930100905030386,
right,go,2,0,2,0,2,4,16,3,948.4457521438599,None,1,0.41128110885620117,948.4457521438599,None,948.9855971336365,None,950.0024800300598,950.3671720027924,950.0024800300598,950.3671720027924,948.9855971336365,None,948.9855971336365,None,948.9855971336365,None,-1,-1,1,True,279.3581485748291,667.6616668701172,right,951.837562084198,None,pilot2,icub,clamp,2021_Dec_20_1209,exp,2021.2.3,59.930100905030386,
right,stop,2,0,2,0,2,5,17,5,952.3513979911804,None,1,0.3628668785095215,952.3513979911804,None,952.8292350769043,None,953.844428062439,954.204213142395,953.844428062439,954.204213142395,952.8292350769043,None,952.8292350769043,None,952.8292350769043,None,400,400,1,True,283.2820415496826,-1.0,-1,958.0100271701813,None,pilot2,icub,clamp,2021_Dec_20_1209,exp,2021.2.3,59.930100905030386,
left,go,2,0,2,0,3,0,18,0,958.540708065033,None,1,0.204970121383667,958.540708065033,None,958.8442301750183,None,959.815819978714,960.1634380817413,959.815819978714,960.1634380817413,958.8442301750183,None,958.8442301750183,None,958.8442301750183,None,-1,-1,1,True,257.2216987609863,524.2042541503906,left,961.5145361423492,None,pilot2,icub,clamp,2021_Dec_20_1209,exp,2021.2.3,59.930100905030386,
right,stop,2,0,2,0,3,1,19,5,962.0334060192108,None,1,0.3943290710449219,962.0334060192108,None,962.5134410858154,None,963.5036749839783,963.8398621082306,963.5036749839783,963.8398621082306,962.5134410858154,None,962.5134410858154,None,962.5134410858154,None,400,450,0,True,282.5589179992676,500.0495910644531,right,965.1793830394745,None,pilot2,icub,clamp,2021_Dec_20_1209,exp,2021.2.3,59.930100905030386,
right,go,2,0,2,0,3,2,20,4,965.6804461479187,None,1,0.4246799945831299,965.6804461479187,None,966.2203030586243,None,967.2170190811157,967.5747799873352,967.2170190811157,967.5747799873352,966.2203030586243,None,966.2203030586243,None,966.2203030586243,None,-1,-1,1,True,372.58124351501465,842.5266742706299,right,969.3413150310516,None,pilot2,icub,clamp,2021_Dec_20_1209,exp,2021.2.3,59.930100905030386,
right,go,2,0,2,0,3,3,21,3,969.8617920875549,None,1,0.24933481216430664,969.8617920875549,None,970.2180819511414,None,971.2149760723114,971.5794351100922,971.2149760723114,971.5794351100922,970.2180819511414,None,970.2180819511414,None,970.2180819511414,None,-1,-1,1,True,267.9600715637207,468.7795639038086,right,972.8462190628052,None,pilot2,icub,clamp,2021_Dec_20_1209,exp,2021.2.3,59.930100905030386,
left,go,2,0,2,0,3,4,22,0,973.3625631332397,None,1,0.44460296630859375,973.3625631332397,None,973.908527135849,None,974.9372179508209,975.2844281196594,974.9372179508209,975.2844281196594,973.908527135849,None,973.908527135849,None,973.908527135849,None,-1,-1,1,True,260.3154182434082,536.9613170623779,left,976.611387014389,None,pilot2,icub,clamp,2021_Dec_20_1209,exp,2021.2.3,59.930100905030386,
right,stop,2,0,2,0,3,5,23,5,977.1479971408844,None,1,0.28121495246887207,977.1479971408844,None,977.5096881389618,None,978.535628080368,978.8727920055389,978.535628080368,978.8727920055389,977.5096881389618,None,977.5096881389618,None,977.5096881389618,None,400,400,0,True,230.1461696624756,477.2500991821289,right,980.0855519771576,None,pilot2,icub,clamp,2021_Dec_20_1209,exp,2021.2.3,59.930100905030386,
left,go,2,0,2,0,4,0,24,0,980.5934760570526,None,1,0.28455400466918945,980.5934760570526,None,981.0116579532623,None,982.0307471752167,982.3886079788208,982.0307471752167,982.3886079788208,981.0116579532623,None,981.0116579532623,None,981.0116579532623,None,-1,-1,1,True,296.08702659606934,537.9011631011963,left,983.7521591186523,None,pilot2,icub,clamp,2021_Dec_20_1209,exp,2021.2.3,59.930100905030386,
left,stop,2,0,2,0,4,1,25,2,984.2652430534363,None,1,0.3041350841522217,984.2652430534363,None,984.6832580566406,None,985.7060720920563,986.0632610321045,985.7060720920563,986.0632610321045,984.6832580566406,None,984.6832580566406,None,984.6832580566406,None,400,350,0,True,269.9246406555176,535.3915691375732,left,987.4009840488434,None,pilot2,icub,clamp,2021_Dec_20_1209,exp,2021.2.3,59.930100905030386,
right,go,2,0,2,0,4,2,26,3,987.9108171463013,None,1,0.2691781520843506,987.9108171463013,None,988.2706849575043,None,989.2873821258545,989.6313030719757,989.2873821258545,989.6313030719757,988.2706849575043,None,988.2706849575043,None,988.2706849575043,None,-1,-1,1,True,264.08839225769043,502.4304389953613,right,990.9330711364746,None,pilot2,icub,clamp,2021_Dec_20_1209,exp,2021.2.3,59.930100905030386,
left,go,2,0,2,0,4,3,27,0,991.4457190036774,None,1,0.15251922607421875,991.4457190036774,None,991.6784560680389,None,992.6789100170135,993.0460469722748,992.6789100170135,993.0460469722748,991.6784560680389,None,991.6784560680389,None,991.6784560680389,None,-1,-1,1,True,276.69215202331543,476.46474838256836,left,994.3261811733246,None,pilot2,icub,clamp,2021_Dec_20_1209,exp,2021.2.3,59.930100905030386,
left,go,2,0,2,0,4,4,28,0,994.8387260437012,None,1,0.290416955947876,994.8387260437012,None,995.2551879882812,None,996.2642121315002,996.6033611297607,996.2642121315002,996.6033611297607,995.2551879882812,None,995.2551879882812,None,995.2551879882812,None,-1,-1,1,True,280.7462215423584,479.0687561035156,left,997.8939201831818,None,pilot2,icub,clamp,2021_Dec_20_1209,exp,2021.2.3,59.930100905030386,
right,go,2,0,2,0,4,5,29,4,998.4139151573181,None,1,0.35115885734558105,998.4139151573181,None,998.8924350738525,None,999.8852350711823,1000.2331981658936,999.8852350711823,1000.2331981658936,998.8924350738525,None,998.8924350738525,None,998.8924350738525,None,-1,-1,1,True,305.1013946533203,514.0323638916016,right,1001.6188621520996,None,pilot2,icub,clamp,2021_Dec_20_1209,exp,2021.2.3,59.930100905030386,
right,go,2,0,2,0,5,0,30,3,1002.1360490322113,None,1,0.3118281364440918,1002.1360490322113,None,1002.5542459487915,None,1003.565122127533,1003.9294641017914,1003.565122127533,1003.9294641017914,1002.5542459487915,None,1002.5542459487915,None,1002.5542459487915,None,-1,-1,1,True,255.33795356750488,501.27220153808594,right,1005.1977920532227,None,pilot2,icub,clamp,2021_Dec_20_1209,exp,2021.2.3,59.930100905030386,
left,go,2,0,2,0,5,1,31,0,1005.6979429721832,None,1,0.38603687286376953,1005.6979429721832,None,1006.1797289848328,None,1007.1934771537781,1007.5453050136566,1007.1934771537781,1007.5453050136566,1006.1797289848328,None,1006.1797289848328,None,1006.1797289848328,None,-1,-1,1,True,284.0754985809326,501.3768672943115,left,1008.8584599494934,None,pilot2,icub,clamp,2021_Dec_20_1209,exp,2021.2.3,59.930100905030386,
right,go,2,0,2,0,5,2,32,3,1009.3765230178833,None,1,0.2533879280090332,1009.3765230178833,None,1009.7364931106567,None,1010.729010105133,1011.0865521430969,1010.729010105133,1011.0865521430969,1009.7364931106567,None,1009.7364931106567,None,1009.7364931106567,None,-1,-1,1,True,267.32540130615234,493.00098419189453,right,1012.3784160614014,None,pilot2,icub,clamp,2021_Dec_20_1209,exp,2021.2.3,59.930100905030386,
right,go,2,0,2,0,5,3,33,4,1012.8785080909729,None,1,0.3331589698791504,1012.8785080909729,None,1013.2970600128174,None,1014.3249671459198,1014.668799161911,1014.3249671459198,1014.668799161911,1013.2970600128174,None,1013.2970600128174,None,1013.2970600128174,None,-1,-1,1,True,506.4692497253418,533.7512493133545,right,1016.2378740310669,None,pilot2,icub,clamp,2021_Dec_20_1209,exp,2021.2.3,59.930100905030386,
left,go,2,0,2,0,5,4,34,0,1016.745500087738,None,1,0.3015141487121582,1016.745500087738,None,1017.1636221408844,None,1018.1723890304565,1018.5127000808716,1018.1723890304565,1018.5127000808716,1017.1636221408844,None,1017.1636221408844,None,1017.1636221408844,None,-1,-1,1,True,269.2742347717285,499.85218048095703,left,1019.8287229537964,None,pilot2,icub,clamp,2021_Dec_20_1209,exp,2021.2.3,59.930100905030386,
left,stop,2,0,2,0,5,5,35,2,1020.3366091251373,None,1,0.4332399368286133,1020.3366091251373,None,1020.8763601779938,None,1021.9080209732056,1022.2640030384064,1021.9080209732056,1022.2640030384064,1020.8763601779938,None,1020.8763601779938,None,1020.8763601779938,None,,,0,False,-1.0,-1.0,-1,1022.6544761657715,None,pilot2,icub,clamp,2021_Dec_20_1209,exp,2021.2.3,59.930100905030386,
left,go,2,0,2,0,6,0,36,0,1023.1429929733276,None,1,0.7437679767608643,1023.1429929733276,None,1023.9874260425568,None,1025.0089700222015,1025.3769991397858,1025.0089700222015,1025.3769991397858,1023.9874260425568,None,1023.9874260425568,None,1023.9874260425568,None,-1,-1,1,True,293.2302951812744,527.6639461517334,left,1026.6944661140442,None,pilot2,icub,clamp,2021_Dec_20_1209,exp,2021.2.3,59.930100905030386,
left,go,2,0,2,0,6,1,37,1,1027.2102930545807,None,1,0.27567601203918457,1027.2102930545807,None,1027.5665919780731,None,1028.5954849720001,1028.936017036438,1028.5954849720001,1028.936017036438,1027.5665919780731,None,1027.5665919780731,None,1027.5665919780731,None,-1,-1,1,True,290.5733585357666,515.017032623291,left,1030.2576010227203,None,pilot2,icub,clamp,2021_Dec_20_1209,exp,2021.2.3,59.930100905030386,
right,stop,2,0,2,0,6,2,38,5,1030.7864799499512,None,1,0.32340383529663086,1030.7864799499512,None,1031.2052931785583,None,1032.231791973114,1032.5864310264587,1032.231791973114,1032.5864310264587,1031.2052931785583,None,1031.2052931785583,None,1031.2052931785583,None,350,350,0,True,275.4788398742676,450.2520561218262,right,1033.8068499565125,None,pilot2,icub,clamp,2021_Dec_20_1209,exp,2021.2.3,59.930100905030386,
right,stop,2,0,2,0,6,3,39,5,1034.3130600452423,None,1,0.21366596221923828,1034.3130600452423,None,1034.6071951389313,None,1035.606420993805,1035.9491000175476,1035.606420993805,1035.9491000175476,1034.6071951389313,None,1034.6071951389313,None,1034.6071951389313,None,350,300,1,True,257.0321559906006,-1.0,-1,1039.7460281848907,None,pilot2,icub,clamp,2021_Dec_20_1209,exp,2021.2.3,59.930100905030386,
left,stop,2,0,2,0,6,4,40,2,1040.2396049499512,None,1,0.4218299388885498,1040.2396049499512,None,1040.788283109665,None,1041.8134081363678,1042.159863948822,1041.8134081363678,1042.159863948822,1040.788283109665,None,1040.788283109665,None,1040.788283109665,None,350,350,0,True,262.9420757293701,507.92694091796875,left,1043.4594841003418,None,pilot2,icub,clamp,2021_Dec_20_1209,exp,2021.2.3,59.930100905030386,
right,stop,2,0,2,0,6,5,41,5,1043.977571964264,None,1,0.38198304176330566,1043.977571964264,None,1044.445081949234,None,1045.4560949802399,1045.8036839962006,1045.4560949802399,1045.8036839962006,1044.445081949234,None,1044.445081949234,None,1044.445081949234,None,300,350,1,True,259.4425678253174,-1.0,-1,1049.5967350006104,None,pilot2,icub,clamp,2021_Dec_20_1209,exp,2021.2.3,59.930100905030386,
right,go,2,0,2,0,7,0,42,3,1050.0904021263123,None,1,0.30000996589660645,1050.0904021263123,None,1050.5164461135864,None,1051.5323271751404,1051.8875510692596,1051.5323271751404,1051.8875510692596,1050.5164461135864,None,1050.5164461135864,None,1050.5164461135864,None,-1,-1,1,True,228.78026962280273,461.92121505737305,right,1053.1065990924835,None,pilot2,icub,clamp,2021_Dec_20_1209,exp,2021.2.3,59.930100905030386,
right,go,2,0,2,0,7,1,43,3,1053.6076231002808,None,1,0.45258402824401855,1053.6076231002808,None,1054.15101313591,None,1055.1793820858002,1055.5332081317902,1055.1793820858002,1055.5332081317902,1054.15101313591,None,1054.15101313591,None,1054.15101313591,None,-1,-1,1,True,263.444185256958,1391.8542861938477,right,1057.6759140491486,None,pilot2,icub,clamp,2021_Dec_20_1209,exp,2021.2.3,59.930100905030386,
left,go,2,0,2,0,7,2,44,0,1058.2067501544952,None,1,0.3210270404815674,1058.2067501544952,None,1058.6295540332794,None,1059.6232590675354,1059.9813079833984,1059.6232590675354,1059.9813079833984,1058.6295540332794,None,1058.6295540332794,None,1058.6295540332794,None,-1,-1,1,True,251.81031227111816,451.1692523956299,left,1061.215059041977,None,pilot2,icub,clamp,2021_Dec_20_1209,exp,2021.2.3,59.930100905030386,
left,go,2,0,2,0,7,3,45,1,1061.7451450824738,None,1,0.28156208992004395,1061.7451450824738,None,1062.1599650382996,None,1063.18404006958,1063.540449142456,1063.18404006958,1063.540449142456,1062.1599650382996,None,1062.1599650382996,None,1062.1599650382996,None,-1,-1,1,True,252.9900074005127,470.6580638885498,left,1064.794774055481,None,pilot2,icub,clamp,2021_Dec_20_1209,exp,2021.2.3,59.930100905030386,
left,go,2,0,2,0,7,4,46,1,1065.3107740879059,None,1,0.2580840587615967,1065.3107740879059,None,1065.6691360473633,None,1066.6927371025085,1067.0538001060486,1066.6927371025085,1067.0538001060486,1065.6691360473633,None,1065.6691360473633,None,1065.6691360473633,None,-1,-1,1,True,270.13254165649414,524.4214534759521,left,1068.3381161689758,None,pilot2,icub,clamp,2021_Dec_20_1209,exp,2021.2.3,59.930100905030386,
left,go,2,0,2,0,7,5,47,1,1068.8440420627594,None,1,0.2730741500854492,1068.8440420627594,None,1069.2023611068726,None,1070.2161800861359,1070.5704891681671,1070.2161800861359,1070.5704891681671,1069.2023611068726,None,1069.2023611068726,None,1069.2023611068726,None,-1,-1,1,True,267.82822608947754,469.1500663757324,left,1071.8369431495667,None,pilot2,icub,clamp,2021_Dec_20_1209,exp,2021.2.3,59.930100905030386,
right,stop,2,0,2,0,8,0,48,5,1072.3491959571838,None,1,0.11850905418395996,1072.3491959571838,None,1072.5838539600372,None,1073.5846560001373,1073.9402651786804,1073.5846560001373,1073.9402651786804,1072.5838539600372,None,1072.5838539600372,None,1072.5838539600372,None,300,400,0,True,270.84803581237793,447.5233554840088,right,1075.192978143692,None,pilot2,icub,clamp,2021_Dec_20_1209,exp,2021.2.3,59.930100905030386,
right,go,2,0,2,0,8,1,49,4,1075.710725069046,None,1,0.2700538635253906,1075.710725069046,None,1076.061408996582,None,1077.0546290874481,1077.4086351394653,1077.0546290874481,1077.4086351394653,1076.061408996582,None,1076.061408996582,None,1076.061408996582,None,-1,-1,1,True,295.7916259765625,476.4997959136963,right,1078.7486641407013,None,pilot2,icub,clamp,2021_Dec_20_1209,exp,2021.2.3,59.930100905030386,
left,stop,2,0,2,0,8,2,50,2,1079.2755081653595,None,1,0.1882610321044922,1079.2755081653595,None,1079.569077014923,None,1080.5866000652313,1080.9446671009064,1080.5866000652313,1080.9446671009064,1079.569077014923,None,1079.569077014923,None,1079.569077014923,None,300,350,0,True,294.3425178527832,458.5123062133789,left,1082.2395341396332,None,pilot2,icub,clamp,2021_Dec_20_1209,exp,2021.2.3,59.930100905030386,
left,go,2,0,2,0,8,3,51,0,1082.750116109848,None,1,0.5183258056640625,1082.750116109848,None,1083.3541440963745,None,1084.3552689552307,1084.7126569747925,1084.3552689552307,1084.7126569747925,1083.3541440963745,None,1083.3541440963745,None,1083.3541440963745,None,-1,-1,1,True,187.42966651916504,450.49142837524414,left,1085.8833651542664,None,pilot2,icub,clamp,2021_Dec_20_1209,exp,2021.2.3,59.930100905030386,
right,stop,2,0,2,0,8,4,52,5,1086.395101070404,None,1,0.1507430076599121,1086.395101070404,None,1086.6263241767883,None,1087.6352410316467,1087.994213104248,1087.6352410316467,1087.994213104248,1086.6263241767883,None,1086.6263241767883,None,1086.6263241767883,None,250,350,0,True,294.5542335510254,377.2401809692383,right,1089.1954860687256,None,pilot2,icub,clamp,2021_Dec_20_1209,exp,2021.2.3,59.930100905030386,
left,go,2,0,2,0,8,5,53,1,1089.715448141098,None,1,0.16823387145996094,1089.715448141098,None,1090.0061900615692,None,1091.0317690372467,1091.3828430175781,1091.0317690372467,1091.3828430175781,1090.0061900615692,None,1090.0061900615692,None,1090.0061900615692,None,-1,-1,1,True,304.17561531066895,442.03805923461914,left,1092.6622540950775,None,pilot2,icub,clamp,2021_Dec_20_1209,exp,2021.2.3,59.930100905030386,
right,go,2,0,2,0,9,0,54,4,1093.1790900230408,None,1,0.08589291572570801,1093.1790900230408,None,1093.3489451408386,None,1094.340826034546,1094.6789491176605,1094.340826034546,1094.6789491176605,1093.3489451408386,None,1093.3489451408386,None,1093.3489451408386,None,-1,-1,1,True,298.7072467803955,435.6849193572998,right,1095.9863040447235,None,pilot2,icub,clamp,2021_Dec_20_1209,exp,2021.2.3,59.930100905030386,
left,stop,2,0,2,0,9,1,55,2,1096.5031650066376,None,1,0.04034113883972168,1096.5031650066376,None,1096.6707429885864,None,1097.6809520721436,1098.004783153534,1097.6809520721436,1098.004783153534,1096.6707429885864,None,1096.6707429885864,None,1096.6707429885864,None,250,300,0,True,212.4953269958496,426.77831649780273,left,1099.2252321243286,None,pilot2,icub,clamp,2021_Dec_20_1209,exp,2021.2.3,59.930100905030386,
right,stop,2,0,2,0,9,2,56,5,1099.7158069610596,None,1,0.3430361747741699,1099.7158069610596,None,1100.1342389583588,None,1101.1229901313782,1101.4831140041351,1101.1229901313782,1101.4831140041351,1100.1342389583588,None,1100.1342389583588,None,1100.1342389583588,None,200,300,0,True,273.2360363006592,419.64101791381836,right,1102.701544046402,None,pilot2,icub,clamp,2021_Dec_20_1209,exp,2021.2.3,59.930100905030386,
left,go,2,0,2,0,9,3,57,1,1103.2114651203156,None,1,0.11600184440612793,1103.2114651203156,None,1103.4443380832672,None,1104.4371180534363,1104.7897510528564,1104.4371180534363,1104.7897510528564,1103.4443380832672,None,1103.4443380832672,None,1103.4443380832672,None,-1,-1,1,True,290.7674312591553,469.77782249450684,left,1106.0871200561523,None,pilot2,icub,clamp,2021_Dec_20_1209,exp,2021.2.3,59.930100905030386,
left,go,2,0,2,0,9,4,58,1,1106.5916621685028,None,1,0.22882485389709473,1106.5916621685028,None,1106.9434101581573,None,1107.9616031646729,1108.3099119663239,1107.9616031646729,1108.3099119663239,1106.9434101581573,None,1106.9434101581573,None,1106.9434101581573,None,-1,-1,1,True,272.6321220397949,478.5757064819336,left,1109.5853140354156,None,pilot2,icub,clamp,2021_Dec_20_1209,exp,2021.2.3,59.930100905030386,
right,go,2,0,2,0,9,5,59,3,1110.08766913414,None,1,0.2210249900817871,1110.08766913414,None,1110.3842651844025,None,1111.4140310287476,1111.767807006836,1111.4140310287476,1111.767807006836,1110.3842651844025,None,1110.3842651844025,None,1110.3842651844025,None,-1,-1,1,True,266.6032314300537,432.7206611633301,right,1112.9723041057587,None,pilot2,icub,clamp,2021_Dec_20_1209,exp,2021.2.3,59.930100905030386,
left,go,2,0,2,0,10,0,60,1,1113.472629070282,None,1,0.15587306022644043,1113.472629070282,None,1113.709114074707,None,1114.7310211658478,1115.0725331306458,1114.7310211658478,1115.0725331306458,1113.709114074707,None,1113.709114074707,None,1113.709114074707,None,-1,-1,1,True,277.95934677124023,450.96302032470703,left,1116.3298289775848,None,pilot2,icub,clamp,2021_Dec_20_1209,exp,2021.2.3,59.930100905030386,
right,go,2,0,2,0,10,1,61,4,1116.8570930957794,None,1,0.13151097297668457,1116.8570930957794,None,1117.0887491703033,None,1118.0997550487518,1118.4541449546814,1118.0997550487518,1118.4541449546814,1117.0887491703033,None,1117.0887491703033,None,1117.0887491703033,None,-1,-1,1,True,215.82961082458496,419.59238052368164,right,1119.606341123581,None,pilot2,icub,clamp,2021_Dec_20_1209,exp,2021.2.3,59.930100905030386,
right,go,2,0,2,0,10,2,62,3,1120.1113879680634,None,1,0.09029984474182129,1120.1113879680634,None,1120.281996011734,None,1121.3076100349426,1121.6522550582886,1121.3076100349426,1121.6522550582886,1120.281996011734,None,1120.281996011734,None,1120.281996011734,None,-1,-1,1,True,316.7588710784912,411.62109375,right,1122.9108619689941,None,pilot2,icub,clamp,2021_Dec_20_1209,exp,2021.2.3,59.930100905030386,
left,stop,2,0,2,0,10,3,63,2,1123.4312059879303,None,1,0.0715489387512207,1123.4312059879303,None,1123.6031801700592,None,1124.621574163437,1124.9604661464691,1124.621574163437,1124.9604661464691,1123.6031801700592,None,1123.6031801700592,None,1123.6031801700592,None,200,250,1,True,288.9254093170166,-1.0,-1,1128.7807259559631,None,pilot2,icub,clamp,2021_Dec_20_1209,exp,2021.2.3,59.930100905030386,
right,go,2,0,2,0,10,4,64,4,1129.3122930526733,None,1,0.2739260196685791,1129.3122930526733,None,1129.6761701107025,None,1130.655102968216,1131.0105800628662,1130.655102968216,1131.0105800628662,1129.6761701107025,None,1129.6761701107025,None,1129.6761701107025,None,-1,-1,1,True,249.43876266479492,418.2476997375488,right,1132.2435040473938,None,pilot2,icub,clamp,2021_Dec_20_1209,exp,2021.2.3,59.930100905030386,
left,go,2,0,2,0,10,5,65,1,1132.7447621822357,None,1,0.2160780429840088,1132.7447621822357,None,1133.0413501262665,None,1134.037631034851,1134.392688035965,1134.037631034851,1134.392688035965,1133.0413501262665,None,1133.0413501262665,None,1133.0413501262665,None,-1,-1,1,True,274.92308616638184,461.2302780151367,left,1135.6590399742126,None,pilot2,icub,clamp,2021_Dec_20_1209,exp,2021.2.3,59.930100905030386,
right,go,2,0,2,0,11,0,66,4,1136.172788143158,None,1,0.1929640769958496,1136.172788143158,None,1136.4666030406952,None,1137.479078054428,1137.826238155365,1137.479078054428,1137.826238155365,1136.4666030406952,None,1136.4666030406952,None,1136.4666030406952,None,-1,-1,1,True,299.330472946167,452.46291160583496,right,1139.1286239624023,None,pilot2,icub,clamp,2021_Dec_20_1209,exp,2021.2.3,59.930100905030386,
left,go,2,0,2,0,11,1,67,0,1139.632688999176,None,1,0.289780855178833,1139.632688999176,None,1140.0509850978851,None,1141.0551691055298,1141.3976421356201,1141.0551691055298,1141.3976421356201,1140.0509850978851,None,1140.0509850978851,None,1140.0509850978851,None,-1,-1,1,True,310.30750274658203,470.8068370819092,left,1142.7300629615784,None,pilot2,icub,clamp,2021_Dec_20_1209,exp,2021.2.3,59.930100905030386,
left,stop,2,0,2,0,11,2,68,2,1143.240849018097,None,1,0.24111413955688477,1143.240849018097,None,1143.5966231822968,None,1144.6276631355286,1144.9862241744995,1144.6276631355286,1144.9862241744995,1143.5966231822968,None,1143.5966231822968,None,1143.5966231822968,None,250,250,0,False,313.0941390991211,449.8779773712158,right,1146.2438480854034,None,pilot2,icub,clamp,2021_Dec_20_1209,exp,2021.2.3,59.930100905030386,
right,go,2,0,2,0,11,3,69,4,1146.7517051696777,None,1,0.33472394943237305,1146.7517051696777,None,1147.1691579818726,None,1148.175616979599,1148.5275700092316,1148.175616979599,1148.5275700092316,1147.1691579818726,None,1147.1691579818726,None,1147.1691579818726,None,-1,-1,1,True,274.7805118560791,429.96716499328613,right,1149.7651619911194,None,pilot2,icub,clamp,2021_Dec_20_1209,exp,2021.2.3,59.930100905030386,
right,stop,2,0,2,0,11,4,70,5,1150.2658071517944,None,1,0.2590000629425049,1150.2658071517944,None,1150.625097990036,None,1151.6390190124512,1151.994243144989,1151.6390190124512,1151.994243144989,1150.625097990036,None,1150.625097990036,None,1150.625097990036,None,200,250,0,True,204.21409606933594,392.0464515686035,right,1153.128291130066,None,pilot2,icub,clamp,2021_Dec_20_1209,exp,2021.2.3,59.930100905030386,
right,go,2,0,2,0,11,5,71,4,1153.6397609710693,None,1,0.26871395111083984,1153.6397609710693,None,1153.9993419647217,None,1155.029314994812,1155.3791241645813,1155.029314994812,1155.3791241645813,1153.9993419647217,None,1153.9993419647217,None,1153.9993419647217,None,-1,-1,1,True,371.46759033203125,735.9671592712402,right,1156.9815390110016,None,pilot2,icub,clamp,2021_Dec_20_1209,exp,2021.2.3,59.930100905030386,
left,go,2,0,2,0,12,0,72,1,1157.4926149845123,None,1,0.11670684814453125,1157.4926149845123,None,1157.725028038025,None,1158.7541501522064,1159.1236400604248,1158.7541501522064,1159.1236400604248,1157.725028038025,None,1157.725028038025,None,1157.725028038025,None,-1,-1,1,True,284.6851348876953,487.3993396759033,left,1160.3864710330963,None,pilot2,icub,clamp,2021_Dec_20_1209,exp,2021.2.3,59.930100905030386,
left,stop,2,0,2,0,12,1,73,2,1160.907371044159,None,1,0.1920461654663086,1160.907371044159,None,1161.2031121253967,None,1162.2024719715118,1162.5589711666107,1162.2024719715118,1162.5589711666107,1161.2031121253967,None,1161.2031121253967,None,1161.2031121253967,None,200,200,1,True,113.02971839904785,-1.0,-1,1166.1996159553528,None,pilot2,icub,clamp,2021_Dec_20_1209,exp,2021.2.3,59.930100905030386,
right,stop,2,0,2,0,12,2,74,5,1166.732458114624,None,1,0.33855104446411133,1166.732458114624,None,1167.1602489948273,None,1168.1386170387268,1168.482880115509,1168.1386170387268,1168.482880115509,1167.1602489948273,None,1167.1602489948273,None,1167.1602489948273,None,250,200,1,True,235.8715534210205,-1.0,-1,1172.2793791294098,None,pilot2,icub,clamp,2021_Dec_20_1209,exp,2021.2.3,59.930100905030386,
right,go,2,0,2,0,12,3,75,4,1172.812963962555,None,1,0.2790639400482178,1172.812963962555,None,1173.178591966629,None,1174.1898090839386,1174.5381660461426,1174.1898090839386,1174.5381660461426,1173.178591966629,None,1173.178591966629,None,1173.178591966629,None,-1,-1,1,True,351.243257522583,431.6110610961914,right,1175.8396260738373,None,pilot2,icub,clamp,2021_Dec_20_1209,exp,2021.2.3,59.930100905030386,
left,go,2,0,2,0,12,4,76,0,1176.348072052002,None,1,0.36133313179016113,1176.348072052002,None,1176.827136039734,None,1177.8313710689545,1178.182940006256,1177.8313710689545,1178.182940006256,1176.827136039734,None,1176.827136039734,None,1176.827136039734,None,-1,-1,1,True,265.6874656677246,504.34231758117676,left,1179.4772431850433,None,pilot2,icub,clamp,2021_Dec_20_1209,exp,2021.2.3,59.930100905030386,
right,go,2,0,2,0,12,5,77,3,1179.9918360710144,None,1,0.2895491123199463,1179.9918360710144,None,1180.408791065216,None,1181.4404571056366,1181.7979950904846,1181.4404571056366,1181.7979950904846,1180.408791065216,None,1180.408791065216,None,1180.408791065216,None,-1,-1,1,True,267.28010177612305,499.33457374572754,right,1183.0560309886932,None,pilot2,icub,clamp,2021_Dec_20_1209,exp,2021.2.3,59.930100905030386,
right,go,3,0,3,0,0,0,0,4,1194.7649750709534,None,1,27.573894023895264,1194.7649750709534,None,1222.423702955246,None,1223.4399690628052,1223.79381108284,1223.4399690628052,1223.79381108284,1222.423702955246,None,1222.423702955246,None,1222.423702955246,None,-1,-1,1,True,255.31482696533203,517.8971290588379,right,1225.0968179702759,None,pilot2,icub,clamp,2021_Dec_20_1209,exp,2021.2.3,59.930100905030386,
left,go,3,0,3,0,0,1,1,1,1225.6098911762238,None,1,0.38444995880126953,1225.6098911762238,None,1226.095386981964,None,1227.1146671772003,1227.4748029708862,1227.1146671772003,1227.4748029708862,1226.095386981964,None,1226.095386981964,None,1226.095386981964,None,-1,-1,1,True,223.32429885864258,480.4236888885498,left,1228.6877970695496,None,pilot2,icub,clamp,2021_Dec_20_1209,exp,2021.2.3,59.930100905030386,
right,go,3,0,3,0,0,2,2,4,1229.188294172287,None,1,0.3282918930053711,1229.188294172287,None,1229.607064962387,None,1230.6273460388184,1230.9704329967499,1230.6273460388184,1230.9704329967499,1229.607064962387,None,1229.607064962387,None,1229.607064962387,None,-1,-1,1,True,303.6789894104004,502.0565986633301,right,1232.3013479709625,None,pilot2,icub,clamp,2021_Dec_20_1209,exp,2021.2.3,59.930100905030386,
right,go,3,0,3,0,0,3,3,3,1232.8091881275177,None,1,0.37357401847839355,1232.8091881275177,None,1233.2806351184845,None,1234.3020329475403,1234.6547050476074,1234.3020329475403,1234.6547050476074,1233.2806351184845,None,1233.2806351184845,None,1233.2806351184845,None,-1,-1,1,True,308.1190586090088,568.5238838195801,right,1236.0436000823975,None,pilot2,icub,clamp,2021_Dec_20_1209,exp,2021.2.3,59.930100905030386,
left,go,3,0,3,0,0,4,4,1,1236.5636429786682,None,1,0.18254899978637695,1236.5636429786682,None,1236.8571650981903,None,1237.8483991622925,1238.201267004013,1237.8483991622925,1238.201267004013,1236.8571650981903,None,1236.8571650981903,None,1236.8571650981903,None,-1,-1,1,True,225.81768035888672,439.1202926635742,left,1239.3959970474243,None,pilot2,icub,clamp,2021_Dec_20_1209,exp,2021.2.3,59.930100905030386,
right,stop,3,0,3,0,0,5,5,5,1239.9160721302032,None,1,0.19916296005249023,1239.9160721302032,None,1240.2156150341034,None,1241.2177240848541,1241.5684370994568,1241.2177240848541,1241.5684370994568,1240.2156150341034,None,1240.2156150341034,None,1240.2156150341034,None,250,250,1,True,55.81259727478027,-1.0,-1,1245.1417291164398,None,pilot2,icub,clamp,2021_Dec_20_1209,exp,2021.2.3,59.930100905030386,
left,stop,3,0,3,0,1,0,6,2,1245.6736199855804,None,1,0.24712085723876953,1245.6736199855804,None,1246.0390090942383,None,1247.0185890197754,1247.367959022522,1247.0185890197754,1247.367959022522,1246.0390090942383,None,1246.0390090942383,None,1246.0390090942383,None,250,300,0,True,256.0086250305176,471.13513946533203,left,1248.674716949463,None,pilot2,icub,clamp,2021_Dec_20_1209,exp,2021.2.3,59.930100905030386,
right,go,3,0,3,0,1,1,7,3,1249.1979081630707,None,1,0.43525218963623047,1249.1979081630707,None,1249.739065170288,None,1250.7348370552063,1251.0939140319824,1250.7348370552063,1251.0939140319824,1249.739065170288,None,1249.739065170288,None,1249.739065170288,None,-1,-1,1,True,236.43732070922852,475.6486415863037,right,1252.33513712883,None,pilot2,icub,clamp,2021_Dec_20_1209,exp,2021.2.3,59.930100905030386,
left,go,3,0,3,0,1,2,8,1,1252.8540980815887,None,1,0.1828618049621582,1252.8540980815887,None,1253.1346101760864,None,1254.156571149826,1254.5062041282654,1254.156571149826,1254.5062041282654,1253.1346101760864,None,1253.1346101760864,None,1253.1346101760864,None,-1,-1,1,True,236.3576889038086,492.1255111694336,left,1255.757668018341,None,pilot2,icub,clamp,2021_Dec_20_1209,exp,2021.2.3,59.930100905030386,
right,go,3,0,3,0,1,3,9,4,1256.2729179859161,None,1,0.26329803466796875,1256.2729179859161,None,1256.6315641403198,None,1257.6412460803986,1257.9853789806366,1257.6412460803986,1257.9853789806366,1256.6315641403198,None,1256.6315641403198,None,1256.6315641403198,None,-1,-1,1,True,263.12851905822754,425.93836784362793,right,1259.2268459796906,None,pilot2,icub,clamp,2021_Dec_20_1209,exp,2021.2.3,59.930100905030386,
