Holder,Action,blocks.thisRepN,blocks.thisTrialN,blocks.thisN,blocks.thisIndex,trials.thisRepN,trials.thisTrialN,trials.thisN,trials.thisIndex,start_msg.started,start_msg.stopped,RespButton_start_trial.keys,RespButton_start_trial.rt,RespButton_start_trial.started,RespButton_start_trial.stopped,GREEN.started,GREEN.stopped,LEFT_RED.started,LEFT_RED.stopped,RIGHT_RED.started,RIGHT_RED.stopped,LEFT_CIRCLE.started,LEFT_CIRCLE.stopped,CENTER_CIRCLE.started,CENTER_CIRCLE.stopped,RIGHT_CIRCLE.started,RIGHT_CIRCLE.stopped,SOUND_DELAY_MS_LEFT,SOUND_DELAY_MS_RIGHT,CORRECT,VALIDITY,RELEASE_TIME,TOUCH_TIME,BOTTLE_RESPONSE_POSITION,text.started,text.stopped,pid,left_position,right_position,date,expName,psychopyVersion,frameRate,
left,stop,0,0,0,0,0,0,0,2,32.7872359752655,None,1,4.2694480419158936,32.7872359752655,None,37.158833026885986,None,38.16368913650513,38.4870879650116,38.16368913650513,38.4870879650116,37.158833026885986,None,37.158833026885986,None,37.158833026885986,None,500,500,0,True,380.46789169311523,471.18067741394043,left,39.92342209815979,None,pilot3,icub,clamp,2021_Dec_20_1353,exp,2021.2.3,60.05899502265295,
left,stop,0,0,0,0,0,1,1,2,40.426604986190796,None,1,0.6969430446624756,40.426604986190796,None,41.21876907348633,None,42.240408182144165,42.6001181602478,42.240408182144165,42.6001181602478,41.21876907348633,None,41.21876907348633,None,41.21876907348633,None,450,500,0,True,371.33216857910156,329.334020614624,left,43.81290102005005,None,pilot3,icub,clamp,2021_Dec_20_1353,exp,2021.2.3,60.05899502265295,
left,stop,0,0,0,0,0,2,2,2,44.327579975128174,None,1,0.31699705123901367,44.327579975128174,None,44.7457320690155,None,45.75068402290344,46.09536910057068,45.75068402290344,46.09536910057068,44.7457320690155,None,44.7457320690155,None,44.7457320690155,None,400,500,0,True,417.3717498779297,323.57096672058105,left,47.369166135787964,None,pilot3,icub,clamp,2021_Dec_20_1353,exp,2021.2.3,60.05899502265295,
left,go,0,0,0,0,0,3,3,0,47.87549304962158,None,1,0.3751060962677002,47.87549304962158,None,48.35645914077759,None,49.37319207191467,49.7187340259552,49.37319207191467,49.7187340259552,48.35645914077759,None,48.35645914077759,None,48.35645914077759,None,-1,-1,1,True,359.6930503845215,374.05896186828613,left,50.987926959991455,None,pilot3,icub,clamp,2021_Dec_20_1353,exp,2021.2.3,60.05899502265295,
right,stop,0,0,0,0,0,4,4,5,51.51086711883545,None,1,0.19023418426513672,51.51086711883545,None,51.801788091659546,None,52.81649303436279,53.16610503196716,52.81649303436279,53.16610503196716,51.801788091659546,None,51.801788091659546,None,51.801788091659546,None,350,500,0,True,385.2095603942871,360.3799343109131,right,54.438780069351196,None,pilot3,icub,clamp,2021_Dec_20_1353,exp,2021.2.3,60.05899502265295,
right,go,0,0,0,0,0,5,5,4,54.94707798957825,None,1,0.7971210479736328,54.94707798957825,None,55.85864996910095,None,56.873810052871704,57.23650598526001,56.873810052871704,57.23650598526001,55.85864996910095,None,55.85864996910095,None,55.85864996910095,None,-1,-1,1,True,303.94577980041504,307.92737007141113,right,58.37378001213074,None,pilot3,icub,clamp,2021_Dec_20_1353,exp,2021.2.3,60.05899502265295,
right,stop,0,0,0,0,1,0,6,5,58.88665318489075,None,1,0.25753092765808105,58.88665318489075,None,59.244982957839966,None,60.247910022735596,60.60016202926636,60.247910022735596,60.60016202926636,59.244982957839966,None,59.244982957839966,None,59.244982957839966,None,350,450,0,True,389.97578620910645,325.93488693237305,right,61.85393214225769,None,pilot3,icub,clamp,2021_Dec_20_1353,exp,2021.2.3,60.05899502265295,
left,stop,0,0,0,0,1,1,7,2,62.35712504386902,None,1,0.7413909435272217,62.35712504386902,None,63.20838403701782,None,64.23298811912537,64.5924060344696,64.23298811912537,64.5924060344696,63.20838403701782,None,63.20838403701782,None,63.20838403701782,None,350,400,0,True,490.77415466308594,358.0281734466553,left,65.92860007286072,None,pilot3,icub,clamp,2021_Dec_20_1353,exp,2021.2.3,60.05899502265295,
right,stop,0,0,0,0,1,2,8,5,66.42957901954651,None,1,1.0796539783477783,66.42957901954651,None,67.58959197998047,None,68.58339810371399,68.94235801696777,68.58339810371399,68.94235801696777,67.58959197998047,None,67.58959197998047,None,67.58959197998047,None,300,400,0,True,297.5285053253174,334.60092544555664,right,70.10273599624634,None,pilot3,icub,clamp,2021_Dec_20_1353,exp,2021.2.3,60.05899502265295,
left,go,0,0,0,0,1,3,9,0,70.62518310546875,None,1,0.5705001354217529,70.62518310546875,None,71.29129600524902,None,72.30477905273438,72.63942813873291,72.30477905273438,72.63942813873291,71.29129600524902,None,71.29129600524902,None,71.29129600524902,None,-1,-1,1,True,307.2235584259033,383.7103843688965,left,73.89061498641968,None,pilot3,icub,clamp,2021_Dec_20_1353,exp,2021.2.3,60.05899502265295,
right,go,0,0,0,0,1,4,10,3,74.39467000961304,None,1,0.15348410606384277,74.39467000961304,None,74.62870216369629,None,75.63206601142883,75.9724371433258,75.63206601142883,75.9724371433258,74.62870216369629,None,74.62870216369629,None,74.62870216369629,None,-1,-1,1,True,760.5490684509277,294.56186294555664,right,77.58189415931702,None,pilot3,icub,clamp,2021_Dec_20_1353,exp,2021.2.3,60.05899502265295,
right,go,0,0,0,0,1,5,11,3,78.08183217048645,None,1,0.2951810359954834,78.08183217048645,None,78.5003170967102,None,79.51964998245239,79.87638711929321,79.51964998245239,79.87638711929321,78.5003170967102,None,78.5003170967102,None,78.5003170967102,None,-1,-1,1,True,578.7513256072998,303.55238914489746,right,81.28873109817505,None,pilot3,icub,clamp,2021_Dec_20_1353,exp,2021.2.3,60.05899502265295,
right,go,0,0,0,0,2,0,12,4,81.82532095909119,None,1,0.26903510093688965,81.82532095909119,None,82.18506407737732,None,83.18353605270386,83.54137110710144,83.18353605270386,83.54137110710144,82.18506407737732,None,82.18506407737732,None,82.18506407737732,None,-1,-1,1,True,406.85033798217773,343.1978225708008,right,84.82203316688538,None,pilot3,icub,clamp,2021_Dec_20_1353,exp,2021.2.3,60.05899502265295,
right,go,0,0,0,0,2,1,13,4,85.33671402931213,None,1,0.22585487365722656,85.33671402931213,None,85.69046998023987,None,86.71569800376892,87.07850098609924,86.71569800376892,87.07850098609924,85.69046998023987,None,85.69046998023987,None,85.69046998023987,None,-1,-1,1,True,325.18625259399414,326.9994258880615,right,88.21348810195923,None,pilot3,icub,clamp,2021_Dec_20_1353,exp,2021.2.3,60.05899502265295,
left,stop,0,0,0,0,2,2,14,2,88.72462797164917,None,1,0.33769798278808594,88.72462797164917,None,89.14298915863037,None,90.1475510597229,90.49580097198486,90.1475510597229,90.49580097198486,89.14298915863037,None,89.14298915863037,None,89.14298915863037,None,300,350,0,True,333.8737487792969,341.7091369628906,left,91.69907116889954,None,pilot3,icub,clamp,2021_Dec_20_1353,exp,2021.2.3,60.05899502265295,
left,stop,0,0,0,0,2,3,15,2,92.197909116745,None,1,1.1510870456695557,92.197909116745,None,93.48162198066711,None,94.48328113555908,94.84604001045227,94.48328113555908,94.84604001045227,93.48162198066711,None,93.48162198066711,None,93.48162198066711,None,250,350,0,True,316.74742698669434,315.3846263885498,left,96.00142407417297,None,pilot3,icub,clamp,2021_Dec_20_1353,exp,2021.2.3,60.05899502265295,
right,go,0,0,0,0,2,4,16,4,96.52010798454285,None,1,0.21991419792175293,96.52010798454285,None,96.86797618865967,None,97.87996315956116,98.23956799507141,97.87996315956116,98.23956799507141,96.86797618865967,None,96.86797618865967,None,96.86797618865967,None,-1,-1,1,True,257.61866569519043,312.6528263092041,right,99.34637403488159,None,pilot3,icub,clamp,2021_Dec_20_1353,exp,2021.2.3,60.05899502265295,
left,go,0,0,0,0,2,5,17,1,99.84820318222046,None,1,0.16245794296264648,99.84820318222046,None,100.13908910751343,None,101.15646004676819,101.5071280002594,101.15646004676819,101.5071280002594,100.13908910751343,None,100.13908910751343,None,100.13908910751343,None,-1,-1,1,True,282.1464538574219,323.6823081970215,left,102.62380003929138,None,pilot3,icub,clamp,2021_Dec_20_1353,exp,2021.2.3,60.05899502265295,
right,stop,0,0,0,0,3,0,18,5,103.14340209960938,None,1,0.21492505073547363,103.14340209960938,None,103.43883299827576,None,104.44707417488098,104.8109540939331,104.44707417488098,104.8109540939331,103.43883299827576,None,103.43883299827576,None,103.43883299827576,None,200,350,0,True,364.62950706481934,351.9730567932129,right,106.06158304214478,None,pilot3,icub,clamp,2021_Dec_20_1353,exp,2021.2.3,60.05899502265295,
right,stop,0,0,0,0,3,1,19,5,106.57925009727478,None,1,0.2469310760498047,106.57925009727478,None,106.93574595451355,None,107.93511915206909,108.2752571105957,107.93511915206909,108.2752571105957,106.93574595451355,None,106.93574595451355,None,106.93574595451355,None,200,300,0,True,654.4890403747559,354.3887138366699,right,109.81663298606873,None,pilot3,icub,clamp,2021_Dec_20_1353,exp,2021.2.3,60.05899502265295,
right,go,0,0,0,0,3,2,20,4,110.33643507957458,None,1,0.6246638298034668,110.33643507957458,None,111.06820011138916,None,112.08906412124634,112.45002508163452,112.08906412124634,112.45002508163452,111.06820011138916,None,111.06820011138916,None,111.06820011138916,None,-1,-1,1,True,360.72683334350586,363.80553245544434,right,113.70961618423462,None,pilot3,icub,clamp,2021_Dec_20_1353,exp,2021.2.3,60.05899502265295,
left,go,0,0,0,0,3,3,21,1,114.21633195877075,None,1,0.2052931785583496,114.21633195877075,None,114.51211309432983,None,115.53594899177551,115.87899804115295,115.53594899177551,115.87899804115295,114.51211309432983,None,114.51211309432983,None,114.51211309432983,None,-1,-1,1,True,824.7537612915039,257.02834129333496,left,117.4709141254425,None,pilot3,icub,clamp,2021_Dec_20_1353,exp,2021.2.3,60.05899502265295,
right,go,0,0,0,0,3,4,22,3,117.98319911956787,None,1,0.5185539722442627,117.98319911956787,None,118.5854811668396,None,119.59773302078247,119.94972610473633,119.59773302078247,119.94972610473633,118.5854811668396,None,118.5854811668396,None,118.5854811668396,None,-1,-1,1,True,247.43890762329102,400.165319442749,right,121.11930918693542,None,pilot3,icub,clamp,2021_Dec_20_1353,exp,2021.2.3,60.05899502265295,
left,go,0,0,0,0,3,5,23,1,121.63108015060425,None,1,0.4158360958099365,121.63108015060425,None,122.17060804367065,None,123.2019510269165,123.55671310424805,123.2019510269165,123.55671310424805,122.17060804367065,None,122.17060804367065,None,122.17060804367065,None,-1,-1,1,True,380.39112091064453,308.1934452056885,left,124.76867198944092,None,pilot3,icub,clamp,2021_Dec_20_1353,exp,2021.2.3,60.05899502265295,
right,go,0,0,0,0,4,0,24,3,125.28620600700378,None,1,0.4490799903869629,125.28620600700378,None,125.8296070098877,None,126.84250402450562,127.19102001190186,126.84250402450562,127.19102001190186,125.8296070098877,None,125.8296070098877,None,125.8296070098877,None,-1,-1,1,True,277.8940200805664,405.1775932312012,right,128.38261818885803,None,pilot3,icub,clamp,2021_Dec_20_1353,exp,2021.2.3,60.05899502265295,
left,go,0,0,0,0,4,1,25,0,128.89326000213623,None,1,0.2438821792602539,128.89326000213623,None,129.25301718711853,None,130.24326610565186,130.6103000640869,130.24326610565186,130.6103000640869,129.25301718711853,None,129.25301718711853,None,129.25301718711853,None,-1,-1,1,True,176.77927017211914,378.71289253234863,left,131.68763208389282,None,pilot3,icub,clamp,2021_Dec_20_1353,exp,2021.2.3,60.05899502265295,
right,stop,0,0,0,0,4,2,26,5,132.18836212158203,None,1,0.3046731948852539,132.18836212158203,None,132.61005902290344,None,133.60743618011475,133.96606397628784,133.60743618011475,133.96606397628784,132.61005902290344,None,132.61005902290344,None,132.61005902290344,None,200,250,0,True,283.75887870788574,335.70241928100586,right,135.12071800231934,None,pilot3,icub,clamp,2021_Dec_20_1353,exp,2021.2.3,60.05899502265295,
right,go,0,0,0,0,4,3,27,3,135.63885116577148,None,1,0.7220950126647949,135.63885116577148,None,136.48848795890808,None,137.50346612930298,137.86732506752014,137.50346612930298,137.86732506752014,136.48848795890808,None,136.48848795890808,None,136.48848795890808,None,-1,-1,1,True,308.9714050292969,332.27992057800293,right,139.04369115829468,None,pilot3,icub,clamp,2021_Dec_20_1353,exp,2021.2.3,60.05899502265295,
left,stop,0,0,0,0,4,4,28,2,139.55594897270203,None,1,0.37499308586120605,139.55594897270203,None,140.03774213790894,None,141.06858205795288,141.40725111961365,141.06858205795288,141.40725111961365,140.03774213790894,None,140.03774213790894,None,140.03774213790894,None,200,200,0,True,278.6142826080322,304.00848388671875,left,142.5130331516266,None,pilot3,icub,clamp,2021_Dec_20_1353,exp,2021.2.3,60.05899502265295,
right,go,0,0,0,0,4,5,29,4,143.0299789905548,None,1,0.5841469764709473,143.0299789905548,None,143.6996340751648,None,144.6886260509491,145.01118803024292,144.6886260509491,145.01118803024292,143.6996340751648,None,143.6996340751648,None,143.6996340751648,None,-1,-1,1,True,367.22254753112793,395.8733081817627,right,146.35338616371155,None,pilot3,icub,clamp,2021_Dec_20_1353,exp,2021.2.3,60.05899502265295,
right,go,0,0,0,0,5,0,30,4,146.874351978302,None,1,0.45756006240844727,146.874351978302,None,147.4174599647522,None,148.41189002990723,148.7622411251068,148.41189002990723,148.7622411251068,147.4174599647522,None,147.4174599647522,None,147.4174599647522,None,-1,-1,1,True,308.65931510925293,337.4919891357422,right,149.96238207817078,None,pilot3,icub,clamp,2021_Dec_20_1353,exp,2021.2.3,60.05899502265295,
left,go,0,0,0,0,5,1,31,1,150.4725480079651,None,1,0.3953840732574463,150.4725480079651,None,150.95051312446594,None,151.97356915473938,152.33293914794922,151.97356915473938,152.33293914794922,150.95051312446594,None,150.95051312446594,None,150.95051312446594,None,-1,-1,1,True,359.48753356933594,327.1491527557373,left,153.53056502342224,None,pilot3,icub,clamp,2021_Dec_20_1353,exp,2021.2.3,60.05899502265295,
left,go,0,0,0,0,5,2,32,0,154.04443502426147,None,1,0.38236188888549805,154.04443502426147,None,154.52722311019897,None,155.5621621608734,155.93279314041138,155.5621621608734,155.93279314041138,154.52722311019897,None,154.52722311019897,None,154.52722311019897,None,-1,-1,1,True,270.77412605285645,378.5841464996338,left,157.07459712028503,None,pilot3,icub,clamp,2021_Dec_20_1353,exp,2021.2.3,60.05899502265295,
left,go,0,0,0,0,5,3,33,1,157.59178400039673,None,1,0.275439977645874,157.59178400039673,None,157.94756603240967,None,158.95215511322021,159.30893301963806,158.95215511322021,159.30893301963806,157.94756603240967,None,157.94756603240967,None,157.94756603240967,None,-1,-1,1,True,297.66035079956055,408.2298278808594,left,160.53693914413452,None,pilot3,icub,clamp,2021_Dec_20_1353,exp,2021.2.3,60.05899502265295,
right,stop,0,0,0,0,5,4,34,5,161.07182216644287,None,1,0.31514906883239746,161.07182216644287,None,161.49314999580383,None,162.52418613433838,162.88583898544312,162.52418613433838,162.88583898544312,161.49314999580383,None,161.49314999580383,None,161.49314999580383,None,150,200,0,True,288.2649898529053,351.0401248931885,right,164.04564809799194,None,pilot3,icub,clamp,2021_Dec_20_1353,exp,2021.2.3,60.05899502265295,
right,go,0,0,0,0,5,5,35,4,164.56489896774292,None,1,0.4090399742126465,164.56489896774292,None,165.10221195220947,None,166.12173199653625,166.4638171195984,166.12173199653625,166.4638171195984,165.10221195220947,None,165.10221195220947,None,165.10221195220947,None,-1,-1,1,True,303.7872314453125,321.225643157959,right,167.61295104026794,None,pilot3,icub,clamp,2021_Dec_20_1353,exp,2021.2.3,60.05899502265295,
right,go,0,0,0,0,6,0,36,3,168.12350702285767,None,1,0.02827000617980957,168.12350702285767,None,168.23211216926575,None,169.24632000923157,169.60810017585754,169.24632000923157,169.60810017585754,168.23211216926575,None,168.23211216926575,None,168.23211216926575,None,-1,-1,1,True,327.3177146911621,454.53786849975586,right,170.91347813606262,None,pilot3,icub,clamp,2021_Dec_20_1353,exp,2021.2.3,60.05899502265295,
right,stop,0,0,0,0,6,1,37,5,171.4172821044922,None,1,0.41589879989624023,171.4172821044922,None,171.96076917648315,None,172.97233295440674,173.31239795684814,172.97233295440674,173.31239795684814,171.96076917648315,None,171.96076917648315,None,171.96076917648315,None,150,150,0,True,301.1658191680908,357.24854469299316,right,174.51477098464966,None,pilot3,icub,clamp,2021_Dec_20_1353,exp,2021.2.3,60.05899502265295,
left,go,0,0,0,0,6,2,38,0,175.0187439918518,None,1,0.36905813217163086,175.0187439918518,None,175.49765515327454,None,176.52603316307068,176.87573218345642,176.52603316307068,176.87573218345642,175.49765515327454,None,175.49765515327454,None,175.49765515327454,None,-1,-1,1,True,274.0035057067871,307.3310852050781,left,177.97148203849792,None,pilot3,icub,clamp,2021_Dec_20_1353,exp,2021.2.3,60.05899502265295,
left,stop,0,0,0,0,6,3,39,2,178.4924020767212,None,1,0.05730390548706055,178.4924020767212,None,178.66537499427795,None,179.666246175766,180.01999807357788,179.666246175766,180.01999807357788,178.66537499427795,None,178.66537499427795,None,178.66537499427795,None,150,100,0,True,321.64812088012695,308.63380432128906,left,181.1835560798645,None,pilot3,icub,clamp,2021_Dec_20_1353,exp,2021.2.3,60.05899502265295,
left,go,0,0,0,0,6,4,40,1,181.69302606582642,None,1,0.5767428874969482,181.69302606582642,None,182.36103916168213,None,183.37397408485413,183.7385220527649,183.37397408485413,183.7385220527649,182.36103916168213,None,182.36103916168213,None,182.36103916168213,None,-1,-1,1,True,342.94629096984863,305.39464950561523,left,184.91477012634277,None,pilot3,icub,clamp,2021_Dec_20_1353,exp,2021.2.3,60.05899502265295,
right,go,0,0,0,0,6,5,41,4,185.42134714126587,None,1,0.06572484970092773,185.42134714126587,None,185.59338116645813,None,186.58715295791626,186.931312084198,186.58715295791626,186.931312084198,185.59338116645813,None,185.59338116645813,None,185.59338116645813,None,,,0,False,3000.0298023223877,-1.0,-1,190.49954414367676,None,pilot3,icub,clamp,2021_Dec_20_1353,exp,2021.2.3,60.05899502265295,
left,go,0,0,0,0,7,0,42,1,190.9981701374054,None,1,2.8481900691986084,190.9981701374054,None,193.96958303451538,None,194.98194813728333,195.3334879875183,194.98194813728333,195.3334879875183,193.96958303451538,None,193.96958303451538,None,193.96958303451538,None,-1,-1,1,True,323.85754585266113,366.96934700012207,left,196.56006407737732,None,pilot3,icub,clamp,2021_Dec_20_1353,exp,2021.2.3,60.05899502265295,
right,stop,0,0,0,0,7,1,43,5,197.07841897010803,None,1,0.13938593864440918,197.07841897010803,None,197.30025506019592,None,198.31183099746704,198.65820908546448,198.31183099746704,198.65820908546448,197.30025506019592,None,197.30025506019592,None,197.30025506019592,None,100,100,0,True,299.32546615600586,302.43587493896484,right,199.79035305976868,None,pilot3,icub,clamp,2021_Dec_20_1353,exp,2021.2.3,60.05899502265295,
right,go,0,0,0,0,7,2,44,3,200.3074541091919,None,1,0.42050814628601074,200.3074541091919,None,200.843523979187,None,201.85915303230286,202.2156970500946,201.85915303230286,202.2156970500946,200.843523979187,None,200.843523979187,None,200.843523979187,None,-1,-1,1,True,348.1607437133789,304.2135238647461,right,203.39300513267517,None,pilot3,icub,clamp,2021_Dec_20_1353,exp,2021.2.3,60.05899502265295,
left,go,0,0,0,0,7,3,45,1,203.92043805122375,None,1,0.09360408782958984,203.92043805122375,None,204.09451699256897,None,205.09303212165833,205.43237614631653,205.09303212165833,205.43237614631653,204.09451699256897,None,204.09451699256897,None,204.09451699256897,None,-1,-1,1,True,335.4172706604004,291.58830642700195,left,206.58844900131226,None,pilot3,icub,clamp,2021_Dec_20_1353,exp,2021.2.3,60.05899502265295,
left,stop,0,0,0,0,7,4,46,2,207.1072540283203,None,1,0.27643299102783203,207.1072540283203,None,207.46406197547913,None,208.48041105270386,208.83548402786255,208.48041105270386,208.83548402786255,207.46406197547913,None,207.46406197547913,None,207.46406197547913,None,100,50,0,True,322.9806423187256,370.15342712402344,left,210.05571913719177,None,pilot3,icub,clamp,2021_Dec_20_1353,exp,2021.2.3,60.05899502265295,
right,go,0,0,0,0,7,5,47,4,210.57557916641235,None,1,1.664355993270874,210.57557916641235,None,212.35545802116394,None,213.35276818275452,213.70399403572083,213.35276818275452,213.70399403572083,212.35545802116394,None,212.35545802116394,None,212.35545802116394,None,-1,-1,1,True,325.7942199707031,336.7009162902832,right,214.92923212051392,None,pilot3,icub,clamp,2021_Dec_20_1353,exp,2021.2.3,60.05899502265295,
right,stop,0,0,0,0,8,0,48,5,215.45088505744934,None,1,0.12770414352416992,215.45088505744934,None,215.68561005592346,None,216.72009110450745,217.07110404968262,216.72009110450745,217.07110404968262,215.68561005592346,None,215.68561005592346,None,215.68561005592346,None,50,50,0,True,383.06140899658203,335.7870578765869,right,218.2763421535492,None,pilot3,icub,clamp,2021_Dec_20_1353,exp,2021.2.3,60.05899502265295,
left,stop,0,0,0,0,8,1,49,2,218.80212211608887,None,1,1.2621982097625732,218.80212211608887,None,220.15018796920776,None,221.14467215538025,221.49404501914978,221.14467215538025,221.49404501914978,220.15018796920776,None,220.15018796920776,None,220.15018796920776,None,50,0,1,True,313.234806060791,-1.0,-1,225.3435981273651,None,pilot3,icub,clamp,2021_Dec_20_1353,exp,2021.2.3,60.05899502265295,
right,go,0,0,0,0,8,2,50,4,225.8376350402832,None,1,0.848613977432251,225.8376350402832,None,226.82203316688538,None,227.83003616333008,228.1794991493225,227.83003616333008,228.1794991493225,226.82203316688538,None,226.82203316688538,None,226.82203316688538,None,-1,-1,1,True,534.7096920013428,319.7903633117676,right,229.5440800189972,None,pilot3,icub,clamp,2021_Dec_20_1353,exp,2021.2.3,60.05899502265295,
left,go,0,0,0,0,8,3,51,1,230.05744910240173,None,1,0.11715292930603027,230.05744910240173,None,230.29076218605042,None,231.2943730354309,231.66318202018738,231.2943730354309,231.66318202018738,230.29076218605042,None,230.29076218605042,None,230.29076218605042,None,-1,-1,1,True,447.3433494567871,318.4821605682373,left,232.95458817481995,None,pilot3,icub,clamp,2021_Dec_20_1353,exp,2021.2.3,60.05899502265295,
left,go,0,0,0,0,8,4,52,0,233.47487115859985,None,1,0.10484695434570312,233.47487115859985,None,233.70517301559448,None,234.72933316230774,235.0868740081787,234.72933316230774,235.0868740081787,233.70517301559448,None,233.70517301559448,None,233.70517301559448,None,-1,-1,1,True,354.62045669555664,339.59102630615234,left,236.27140498161316,None,pilot3,icub,clamp,2021_Dec_20_1353,exp,2021.2.3,60.05899502265295,
right,go,0,0,0,0,8,5,53,4,236.80591702461243,None,1,0.13279390335083008,236.80591702461243,None,237.0398609638214,None,238.05364608764648,238.3830211162567,238.05364608764648,238.3830211162567,237.0398609638214,None,237.0398609638214,None,237.0398609638214,None,-1,-1,1,True,363.5368347167969,413.85722160339355,right,239.72107315063477,None,pilot3,icub,clamp,2021_Dec_20_1353,exp,2021.2.3,60.05899502265295,
right,stop,0,0,0,0,9,0,54,5,240.22472405433655,None,1,0.21595001220703125,240.22472405433655,None,240.52104496955872,None,241.54035902023315,241.89286613464355,241.54035902023315,241.89286613464355,240.52104496955872,None,240.52104496955872,None,240.52104496955872,None,100,0,0,True,333.41193199157715,312.5576972961426,right,243.06770205497742,None,pilot3,icub,clamp,2021_Dec_20_1353,exp,2021.2.3,60.05899502265295,
left,go,0,0,0,0,9,1,55,1,243.5651090145111,None,1,0.40836215019226074,243.5651090145111,None,244.10276103019714,None,245.13546299934387,245.47765016555786,245.13546299934387,245.47765016555786,244.10276103019714,None,244.10276103019714,None,244.10276103019714,None,-1,-1,1,True,331.42638206481934,383.50510597229004,left,246.71690917015076,None,pilot3,icub,clamp,2021_Dec_20_1353,exp,2021.2.3,60.05899502265295,
left,go,0,0,0,0,9,2,56,1,247.24073100090027,None,1,0.04186105728149414,247.24073100090027,None,247.41167616844177,None,248.4403941631317,248.79435110092163,248.4403941631317,248.79435110092163,247.41167616844177,None,247.41167616844177,None,247.41167616844177,None,-1,-1,1,True,320.4367160797119,417.93298721313477,left,250.02206206321716,None,pilot3,icub,clamp,2021_Dec_20_1353,exp,2021.2.3,60.05899502265295,
left,go,0,0,0,0,9,3,57,1,250.54286813735962,None,1,0.2715919017791748,250.54286813735962,None,250.90007710456848,None,251.89805507659912,252.22882199287415,251.89805507659912,252.22882199287415,250.90007710456848,None,250.90007710456848,None,250.90007710456848,None,-1,-1,1,True,219.00653839111328,362.5612258911133,left,253.38498401641846,None,pilot3,icub,clamp,2021_Dec_20_1353,exp,2021.2.3,60.05899502265295,
right,go,0,0,0,0,9,4,58,3,253.91912007331848,None,1,0.23174309730529785,253.91912007331848,None,254.27474999427795,None,255.27557110786438,255.6270010471344,255.27557110786438,255.6270010471344,254.27474999427795,None,254.27474999427795,None,254.27474999427795,None,-1,-1,1,True,299.5924949645996,313.50183486938477,right,256.77198910713196,None,pilot3,icub,clamp,2021_Dec_20_1353,exp,2021.2.3,60.05899502265295,
right,stop,0,0,0,0,9,5,59,5,257.2910370826721,None,1,0.06567788124084473,257.2910370826721,None,257.465252161026,None,258.46562600135803,258.82139015197754,258.46562600135803,258.82139015197754,257.465252161026,None,257.465252161026,None,257.465252161026,None,100,-50,0,True,315.7072067260742,339.0612602233887,right,260.011922121048,None,pilot3,icub,clamp,2021_Dec_20_1353,exp,2021.2.3,60.05899502265295,
left,go,0,0,0,0,10,0,60,0,260.52059602737427,None,1,0.6511268615722656,260.52059602737427,None,261.2523579597473,None,262.25759100914,262.6063480377197,262.25759100914,262.6063480377197,261.2523579597473,None,261.2523579597473,None,261.2523579597473,None,-1,-1,1,True,371.3259696960449,316.61367416381836,left,263.83026099205017,None,pilot3,icub,clamp,2021_Dec_20_1353,exp,2021.2.3,60.05899502265295,
left,go,0,0,0,0,10,1,61,0,264.34930396080017,None,1,0.05705904960632324,264.34930396080017,None,264.5140211582184,None,265.5127511024475,265.8612730503082,265.5127511024475,265.8612730503082,264.5140211582184,None,264.5140211582184,None,264.5140211582184,None,-1,-1,0,False,269.99735832214355,323.49634170532227,right,267.02411913871765,None,pilot3,icub,clamp,2021_Dec_20_1353,exp,2021.2.3,60.05899502265295,
left,go,0,0,0,0,10,2,62,0,267.518434047699,None,1,0.09610891342163086,267.518434047699,None,267.69013810157776,None,268.7073950767517,269.06028509140015,268.7073950767517,269.06028509140015,267.69013810157776,None,267.69013810157776,None,267.69013810157776,None,-1,-1,1,True,269.41990852355957,325.46353340148926,left,270.17799615859985,None,pilot3,icub,clamp,2021_Dec_20_1353,exp,2021.2.3,60.05899502265295,
right,stop,0,0,0,0,10,3,63,5,270.6807839870453,None,1,0.28385305404663086,270.6807839870453,None,271.0980920791626,None,272.09361815452576,272.45430397987366,272.09361815452576,272.45430397987366,271.0980920791626,None,271.0980920791626,None,271.0980920791626,None,100,-100,0,True,279.3083190917969,343.16182136535645,right,273.59995317459106,None,pilot3,icub,clamp,2021_Dec_20_1353,exp,2021.2.3,60.05899502265295,
left,go,0,0,0,0,10,4,64,0,274.1305601596832,None,1,3.711766004562378,274.1305601596832,None,277.95802903175354,None,278.990492105484,279.33983397483826,278.990492105484,279.33983397483826,277.95802903175354,None,277.95802903175354,None,277.95802903175354,None,-1,-1,1,True,356.5549850463867,347.881555557251,left,280.57229709625244,None,pilot3,icub,clamp,2021_Dec_20_1353,exp,2021.2.3,60.05899502265295,
right,go,0,0,0,0,10,5,65,3,281.09368109703064,None,1,0.3551168441772461,281.09368109703064,None,281.5725221633911,None,282.5754671096802,282.9197430610657,282.5754671096802,282.9197430610657,281.5725221633911,None,281.5725221633911,None,281.5725221633911,None,-1,-1,1,True,308.060884475708,427.0017147064209,right,284.18141412734985,None,pilot3,icub,clamp,2021_Dec_20_1353,exp,2021.2.3,60.05899502265295,
left,stop,0,0,0,0,11,0,66,2,284.7159631252289,None,1,0.10638904571533203,284.7159631252289,None,284.9454941749573,None,285.94038796424866,286.3056161403656,285.94038796424866,286.3056161403656,284.9454941749573,None,284.9454941749573,None,284.9454941749573,None,100,-150,0,True,272.2887992858887,385.1912021636963,left,287.49110317230225,None,pilot3,icub,clamp,2021_Dec_20_1353,exp,2021.2.3,60.05899502265295,
left,go,0,0,0,0,11,1,67,0,288.0077381134033,None,1,0.3957371711730957,288.0077381134033,None,288.48876309394836,None,289.5069661140442,289.85630106925964,289.5069661140442,289.85630106925964,288.48876309394836,None,288.48876309394836,None,288.48876309394836,None,-1,-1,1,True,268.7687873840332,302.89340019226074,left,290.9483120441437,None,pilot3,icub,clamp,2021_Dec_20_1353,exp,2021.2.3,60.05899502265295,
right,go,0,0,0,0,11,2,68,3,291.4593641757965,None,1,0.2190990447998047,291.4593641757965,None,291.7539930343628,None,292.748162984848,293.11230206489563,292.748162984848,293.11230206489563,291.7539930343628,None,291.7539930343628,None,291.7539930343628,None,-1,-1,1,True,354.7513484954834,332.7772617340088,right,294.34720611572266,None,pilot3,icub,clamp,2021_Dec_20_1353,exp,2021.2.3,60.05899502265295,
left,stop,0,0,0,0,11,3,69,2,294.84994316101074,None,1,0.19833803176879883,294.84994316101074,None,295.14891600608826,None,296.1513681411743,296.5029971599579,296.1513681411743,296.5029971599579,295.14891600608826,None,295.14891600608826,None,295.14891600608826,None,50,-150,0,True,407.67693519592285,325.84285736083984,left,297.77269411087036,None,pilot3,icub,clamp,2021_Dec_20_1353,exp,2021.2.3,60.05899502265295,
left,go,0,0,0,0,11,4,70,0,298.2841520309448,None,1,0.7262399196624756,298.2841520309448,None,299.13498711586,None,300.13098907470703,300.4814250469208,300.13098907470703,300.4814250469208,299.13498711586,None,299.13498711586,None,299.13498711586,None,-1,-1,1,True,269.7610855102539,437.2107982635498,left,301.72601103782654,None,pilot3,icub,clamp,2021_Dec_20_1353,exp,2021.2.3,60.05899502265295,
right,go,0,0,0,0,11,5,71,3,302.2311351299286,None,1,0.09615397453308105,302.2311351299286,None,302.40257716178894,None,303.4042751789093,303.74571800231934,303.4042751789093,303.74571800231934,302.40257716178894,None,302.40257716178894,None,302.40257716178894,None,-1,-1,1,True,328.9203643798828,277.15182304382324,right,304.9100830554962,None,pilot3,icub,clamp,2021_Dec_20_1353,exp,2021.2.3,60.05899502265295,
left,stop,0,0,0,0,12,0,72,2,305.42239117622375,None,1,0.1479940414428711,305.42239117622375,None,305.65598011016846,None,306.6637330055237,306.9867181777954,306.6637330055237,306.9867181777954,305.65598011016846,None,305.65598011016846,None,305.65598011016846,None,0,-150,0,True,344.12503242492676,265.3384208679199,left,308.16674518585205,None,pilot3,icub,clamp,2021_Dec_20_1353,exp,2021.2.3,60.05899502265295,
right,go,0,0,0,0,12,1,73,3,308.6935451030731,None,1,0.6597650051116943,308.6935451030731,None,309.48147106170654,None,310.5111200809479,310.87709403038025,310.5111200809479,310.87709403038025,309.48147106170654,None,309.48147106170654,None,309.48147106170654,None,-1,-1,1,True,301.1319637298584,308.6965084075928,right,311.9736521244049,None,pilot3,icub,clamp,2021_Dec_20_1353,exp,2021.2.3,60.05899502265295,
right,go,0,0,0,0,12,2,74,3,312.49004197120667,None,1,0.08577108383178711,312.49004197120667,None,312.6615581512451,None,313.65835213661194,314.01265501976013,313.65835213661194,314.01265501976013,312.6615581512451,None,312.6615581512451,None,312.6615581512451,None,-1,-1,1,True,491.78409576416016,267.37093925476074,right,315.2966320514679,None,pilot3,icub,clamp,2021_Dec_20_1353,exp,2021.2.3,60.05899502265295,
left,go,0,0,0,0,12,3,75,1,315.8148820400238,None,1,0.12131810188293457,315.8148820400238,None,316.0390131473541,None,317.0707731246948,317.41820216178894,317.0707731246948,317.41820216178894,316.0390131473541,None,316.0390131473541,None,316.0390131473541,None,-1,-1,1,True,459.3970775604248,328.3381462097168,left,318.7130069732666,None,pilot3,icub,clamp,2021_Dec_20_1353,exp,2021.2.3,60.05899502265295,
left,go,0,0,0,0,12,4,76,0,319.22963309288025,None,1,0.29996585845947266,319.22963309288025,None,319.63260102272034,None,320.6469690799713,320.97017312049866,320.6469690799713,320.97017312049866,319.63260102272034,None,319.63260102272034,None,319.63260102272034,None,-1,-1,1,True,381.62803649902344,360.28456687927246,left,322.28067111968994,None,pilot3,icub,clamp,2021_Dec_20_1353,exp,2021.2.3,60.05899502265295,
right,go,0,0,0,0,12,5,77,4,322.7888481616974,None,1,0.19965696334838867,322.7888481616974,None,323.0835340023041,None,324.11199712753296,324.4669511318207,324.11199712753296,324.4669511318207,323.0835340023041,None,323.0835340023041,None,323.0835340023041,None,-1,-1,1,True,486.0203266143799,353.5752296447754,right,325.80189418792725,None,pilot3,icub,clamp,2021_Dec_20_1353,exp,2021.2.3,60.05899502265295,
right,stop,1,0,1,0,0,0,0,5,358.7898139953613,None,1,11.035402059555054,358.7898139953613,None,369.92597818374634,None,370.92117500305176,371.28164196014404,370.92117500305176,371.28164196014404,369.92597818374634,None,369.92597818374634,None,369.92597818374634,None,,,0,False,3000.8726119995117,-1.0,-1,374.82431507110596,None,pilot3,icub,clamp,2021_Dec_20_1353,exp,2021.2.3,60.05899502265295,
right,go,1,0,1,0,0,1,1,4,375.31585597991943,None,1,1.1717700958251953,375.31585597991943,None,376.61350297927856,None,377.5844690799713,377.940306186676,377.5844690799713,377.940306186676,376.61350297927856,None,376.61350297927856,None,376.61350297927856,None,-1,-1,1,True,317.13271141052246,401.3562202453613,right,379.220703125,None,pilot3,icub,clamp,2021_Dec_20_1353,exp,2021.2.3,60.05899502265295,
left,stop,1,0,1,0,0,2,2,2,379.7247769832611,None,1,0.18610215187072754,379.7247769832611,None,380.01986718177795,None,381.02435302734375,381.3744640350342,381.02435302734375,381.3744640350342,380.01986718177795,None,380.01986718177795,None,380.01986718177795,None,-50,-150,0,True,476.72343254089355,295.581579208374,left,382.6772999763489,None,pilot3,icub,clamp,2021_Dec_20_1353,exp,2021.2.3,60.05899502265295,
right,go,1,0,1,0,0,3,3,4,383.19814109802246,None,1,0.8239681720733643,383.19814109802246,None,384.1128430366516,None,385.1109960079193,385.45949697494507,385.1109960079193,385.45949697494507,384.1128430366516,None,384.1128430366516,None,384.1128430366516,None,-1,-1,1,True,277.6632308959961,363.80553245544434,right,386.63539004325867,None,pilot3,icub,clamp,2021_Dec_20_1353,exp,2021.2.3,60.05899502265295,
left,go,1,0,1,0,0,4,4,0,387.15032410621643,None,1,0.048840999603271484,387.15032410621643,None,387.31995701789856,None,388.31785917282104,388.6409721374512,388.31785917282104,388.6409721374512,387.31995701789856,None,387.31995701789856,None,387.31995701789856,None,-1,-1,1,True,269.1671848297119,358.66451263427734,left,389.83059310913086,None,pilot3,icub,clamp,2021_Dec_20_1353,exp,2021.2.3,60.05899502265295,
left,go,1,0,1,0,0,5,5,0,390.33492708206177,None,1,0.15690302848815918,390.33492708206177,None,390.62495708465576,None,391.65030217170715,392.0038950443268,391.65030217170715,392.0038950443268,390.62495708465576,None,390.62495708465576,None,390.62495708465576,None,-1,-1,1,True,307.24382400512695,374.6073246002197,left,393.2112741470337,None,pilot3,icub,clamp,2021_Dec_20_1353,exp,2021.2.3,60.05899502265295,
left,stop,1,0,1,0,1,0,6,2,393.74287605285645,None,1,0.10208892822265625,393.74287605285645,None,393.9737620353699,None,394.99979996681213,395.34876012802124,394.99979996681213,395.34876012802124,393.9737620353699,None,393.9737620353699,None,393.9737620353699,None,-100,-150,1,True,294.0521240234375,-1.0,-1,399.16699600219727,None,pilot3,icub,clamp,2021_Dec_20_1353,exp,2021.2.3,60.05899502265295,
right,go,1,0,1,0,1,1,7,3,399.6970491409302,None,1,0.0465550422668457,399.6970491409302,None,399.87671518325806,None,400.85465002059937,401.2032961845398,400.85465002059937,401.2032961845398,399.87671518325806,None,399.87671518325806,None,399.87671518325806,None,-1,-1,1,True,277.20165252685547,442.49701499938965,right,402.474632024765,None,pilot3,icub,clamp,2021_Dec_20_1353,exp,2021.2.3,60.05899502265295,
left,go,1,0,1,0,1,2,8,0,402.98904299736023,None,1,2.4104650020599365,402.98904299736023,None,405.51807403564453,None,406.4978840351105,406.8552830219269,406.4978840351105,406.8552830219269,405.51807403564453,None,405.51807403564453,None,405.51807403564453,None,-1,-1,1,True,298.05636405944824,383.56781005859375,left,408.07033705711365,None,pilot3,icub,clamp,2021_Dec_20_1353,exp,2021.2.3,60.05899502265295,
left,go,1,0,1,0,1,3,9,1,408.57838702201843,None,1,0.12089300155639648,408.57838702201843,None,408.8089761734009,None,409.80655217170715,410.1513521671295,409.80655217170715,410.1513521671295,408.8089761734009,None,408.8089761734009,None,408.8089761734009,None,-1,-1,0,False,303.0087947845459,355.5183410644531,right,411.3686521053314,None,pilot3,icub,clamp,2021_Dec_20_1353,exp,2021.2.3,60.05899502265295,
right,go,1,0,1,0,1,4,10,3,411.8762221336365,None,1,0.6949319839477539,411.8762221336365,None,412.6700041294098,None,413.69547295570374,414.0462281703949,413.69547295570374,414.0462281703949,412.6700041294098,None,412.6700041294098,None,412.6700041294098,None,-1,-1,1,True,443.1784152984619,393.6457633972168,right,415.4026041030884,None,pilot3,icub,clamp,2021_Dec_20_1353,exp,2021.2.3,60.05899502265295,
left,go,1,0,1,0,1,5,11,0,415.90940499305725,None,1,0.16137290000915527,415.90940499305725,None,416.2000210285187,None,417.2109730243683,417.5755441188812,417.2109730243683,417.5755441188812,416.2000210285187,None,416.2000210285187,None,416.2000210285187,None,-1,-1,1,True,356.51326179504395,366.26243591308594,left,418.83137011528015,None,pilot3,icub,clamp,2021_Dec_20_1353,exp,2021.2.3,60.05899502265295,
left,stop,1,0,1,0,2,0,12,2,419.3347191810608,None,1,0.1881411075592041,419.3347191810608,None,419.62951016426086,None,420.6632151603699,421.0196599960327,420.6632151603699,421.0196599960327,419.62951016426086,None,419.62951016426086,None,419.62951016426086,None,-50,-150,1,True,401.28183364868164,-1.0,-1,424.9385461807251,None,pilot3,icub,clamp,2021_Dec_20_1353,exp,2021.2.3,60.05899502265295,
right,go,1,0,1,0,2,1,13,4,425.47062516212463,None,1,0.751762866973877,425.47062516212463,None,426.33074498176575,None,427.30694603919983,427.6320300102234,427.30694603919983,427.6320300102234,426.33074498176575,None,426.33074498176575,None,426.33074498176575,None,-1,-1,1,True,305.5117130279541,319.6127414703369,right,428.8334410190582,None,pilot3,icub,clamp,2021_Dec_20_1353,exp,2021.2.3,60.05899502265295,
left,stop,1,0,1,0,2,2,14,2,429.3669099807739,None,1,3.0255351066589355,429.3669099807739,None,432.5169081687927,None,433.5212981700897,433.86812710762024,433.5212981700897,433.86812710762024,432.5169081687927,None,432.5169081687927,None,432.5169081687927,None,0,-150,1,True,292.3707962036133,-1.0,-1,437.68296813964844,None,pilot3,icub,clamp,2021_Dec_20_1353,exp,2021.2.3,60.05899502265295,
left,stop,1,0,1,0,2,3,15,2,438.21378207206726,None,1,1.1646969318389893,438.21378207206726,None,439.50559401512146,None,440.49075508117676,440.84091305732727,440.49075508117676,440.84091305732727,439.50559401512146,None,439.50559401512146,None,439.50559401512146,None,50,-150,1,True,319.9498653411865,-1.0,-1,444.71391010284424,None,pilot3,icub,clamp,2021_Dec_20_1353,exp,2021.2.3,60.05899502265295,
left,go,1,0,1,0,2,4,16,1,445.2454881668091,None,1,0.7848000526428223,445.2454881668091,None,446.1685781478882,None,447.15334701538086,447.50897002220154,447.15334701538086,447.50897002220154,446.1685781478882,None,446.1685781478882,None,446.1685781478882,None,-1,-1,1,True,284.5189571380615,346.74596786499023,left,448.67027497291565,None,pilot3,icub,clamp,2021_Dec_20_1353,exp,2021.2.3,60.05899502265295,
right,stop,1,0,1,0,2,5,17,5,449.1881990432739,None,1,0.09848809242248535,449.1881990432739,None,449.4194519519806,None,450.41257214546204,450.7826581001282,450.41257214546204,450.7826581001282,449.4194519519806,None,449.4194519519806,None,449.4194519519806,None,100,-150,1,True,320.62506675720215,-1.0,-1,454.63556599617004,None,pilot3,icub,clamp,2021_Dec_20_1353,exp,2021.2.3,60.05899502265295,
right,go,1,0,1,0,3,0,18,4,455.16986417770386,None,1,0.6505310535430908,455.16986417770386,None,455.90543508529663,None,456.9089560508728,457.2677481174469,456.9089560508728,457.2677481174469,455.90543508529663,None,455.90543508529663,None,455.90543508529663,None,-1,-1,1,True,261.9283199310303,360.26883125305176,right,458.42242312431335,None,pilot3,icub,clamp,2021_Dec_20_1353,exp,2021.2.3,60.05899502265295,
left,stop,1,0,1,0,3,1,19,2,458.9456350803375,None,1,0.04385113716125488,458.9456350803375,None,459.1128160953522,None,460.1326570510864,460.4696431159973,460.1326570510864,460.4696431159973,459.1128160953522,None,459.1128160953522,None,459.1128160953522,None,100,-100,0,True,266.3874626159668,386.4290714263916,left,461.6740469932556,None,pilot3,icub,clamp,2021_Dec_20_1353,exp,2021.2.3,60.05899502265295,
left,go,1,0,1,0,3,2,20,0,462.1778311729431,None,1,0.7611110210418701,462.1778311729431,None,463.0300600528717,None,464.0394780635834,464.404589176178,464.0394780635834,464.404589176178,463.0300600528717,None,463.0300600528717,None,463.0300600528717,None,-1,-1,1,True,299.61299896240234,431.38980865478516,left,465.66741609573364,None,pilot3,icub,clamp,2021_Dec_20_1353,exp,2021.2.3,60.05899502265295,
right,go,1,0,1,0,3,3,21,3,466.1867799758911,None,1,0.17007803916931152,466.1867799758911,None,466.4803020954132,None,467.48642015457153,467.8545970916748,467.48642015457153,467.8545970916748,466.4803020954132,None,466.4803020954132,None,466.4803020954132,None,-1,-1,1,True,310.9173774719238,414.0925407409668,right,469.1131191253662,None,pilot3,icub,clamp,2021_Dec_20_1353,exp,2021.2.3,60.05899502265295,
right,stop,1,0,1,0,3,4,22,5,469.6269681453705,None,1,0.16054916381835938,469.6269681453705,None,469.862930059433,None,470.86069917678833,471.2186369895935,470.86069917678833,471.2186369895935,469.862930059433,None,469.862930059433,None,469.862930059433,None,50,-100,1,True,301.0754585266113,-1.0,-1,475.047611951828,None,pilot3,icub,clamp,2021_Dec_20_1353,exp,2021.2.3,60.05899502265295,
left,stop,1,0,1,0,3,5,23,2,475.5789999961853,None,1,0.49117088317871094,475.5789999961853,None,476.19286012649536,None,477.1736581325531,477.52939796447754,477.1736581325531,477.52939796447754,476.19286012649536,None,476.19286012649536,None,476.19286012649536,None,50,-50,1,True,308.26568603515625,-1.0,-1,481.36690616607666,None,pilot3,icub,clamp,2021_Dec_20_1353,exp,2021.2.3,60.05899502265295,
left,go,1,0,1,0,4,0,24,1,481.8991889953613,None,1,0.5784060955047607,481.8991889953613,None,482.57556915283203,None,483.5594120025635,483.91479110717773,483.5594120025635,483.91479110717773,482.57556915283203,None,482.57556915283203,None,482.57556915283203,None,-1,-1,1,True,309.5390796661377,319.69690322875977,left,485.07924795150757,None,pilot3,icub,clamp,2021_Dec_20_1353,exp,2021.2.3,60.05899502265295,
right,go,1,0,1,0,4,1,25,3,485.58417415618896,None,1,0.13131499290466309,485.58417415618896,None,485.81565618515015,None,486.82873797416687,487.18406414985657,486.82873797416687,487.18406414985657,485.81565618515015,None,485.81565618515015,None,485.81565618515015,None,-1,-1,1,True,349.12776947021484,296.3874340057373,right,488.33838415145874,None,pilot3,icub,clamp,2021_Dec_20_1353,exp,2021.2.3,60.05899502265295,
right,stop,1,0,1,0,4,2,26,5,488.8522300720215,None,1,0.03311896324157715,488.8522300720215,None,489.0186071395874,None,490.03080010414124,490.3847441673279,490.03080010414124,490.3847441673279,489.0186071395874,None,489.0186071395874,None,489.0186071395874,None,100,-50,1,True,302.3066520690918,-1.0,-1,494.20184111595154,None,pilot3,icub,clamp,2021_Dec_20_1353,exp,2021.2.3,60.05899502265295,
left,go,1,0,1,0,4,3,27,0,494.7342300415039,None,1,0.6248669624328613,494.7342300415039,None,495.46981406211853,None,496.48154306411743,496.8423490524292,496.48154306411743,496.8423490524292,495.46981406211853,None,495.46981406211853,None,495.46981406211853,None,-1,-1,1,True,230.49306869506836,299.58462715148926,left,497.9038519859314,None,pilot3,icub,clamp,2021_Dec_20_1353,exp,2021.2.3,60.05899502265295,
right,go,1,0,1,0,4,4,28,4,498.41412806510925,None,1,0.3197798728942871,498.41412806510925,None,498.83496618270874,None,499.8356411457062,500.1994581222534,499.8356411457062,500.1994581222534,498.83496618270874,None,498.83496618270874,None,498.83496618270874,None,-1,-1,1,True,462.58091926574707,419.5218086242676,right,501.61154413223267,None,pilot3,icub,clamp,2021_Dec_20_1353,exp,2021.2.3,60.05899502265295,
left,go,1,0,1,0,4,5,29,0,502.1303880214691,None,1,0.12122106552124023,502.1303880214691,None,502.36645698547363,None,503.38677501678467,503.7318160533905,503.38677501678467,503.7318160533905,502.36645698547363,None,502.36645698547363,None,502.36645698547363,None,-1,-1,1,True,559.0245723724365,393.3436870574951,left,505.18989396095276,None,pilot3,icub,clamp,2021_Dec_20_1353,exp,2021.2.3,60.05899502265295,
left,stop,1,0,1,0,5,0,30,2,505.70696210861206,None,1,0.19244694709777832,505.70696210861206,None,506.0006170272827,None,507.0013921260834,507.36603307724,507.0013921260834,507.36603307724,506.0006170272827,None,506.0006170272827,None,506.0006170272827,None,100,0,1,True,923.2940673828125,-1.0,-1,511.8241240978241,None,pilot3,icub,clamp,2021_Dec_20_1353,exp,2021.2.3,60.05899502265295,
right,stop,1,0,1,0,5,1,31,5,512.3571031093597,None,1,0.869966983795166,512.3571031093597,None,513.3394501209259,None,514.337728023529,514.6924200057983,514.337728023529,514.6924200057983,513.3394501209259,None,513.3394501209259,None,513.3394501209259,None,150,0,1,True,312.09611892700195,-1.0,-1,518.5298011302948,None,pilot3,icub,clamp,2021_Dec_20_1353,exp,2021.2.3,60.05899502265295,
left,go,1,0,1,0,5,2,32,1,519.0616130828857,None,1,0.6114168167114258,519.0616130828857,None,519.7992751598358,None,520.7818100452423,521.1050281524658,520.7818100452423,521.1050281524658,519.7992751598358,None,519.7992751598358,None,519.7992751598358,None,-1,-1,1,True,164.46852684020996,360.6133460998535,left,522.1946539878845,None,pilot3,icub,clamp,2021_Dec_20_1353,exp,2021.2.3,60.05899502265295,
right,go,1,0,1,0,5,3,33,4,522.7126879692078,None,1,0.10189509391784668,522.7126879692078,None,522.943088054657,None,523.9393451213837,524.2967009544373,523.9393451213837,524.2967009544373,522.943088054657,None,522.943088054657,None,522.943088054657,None,-1,-1,1,True,322.7708339691162,348.8500118255615,right,525.5220260620117,None,pilot3,icub,clamp,2021_Dec_20_1353,exp,2021.2.3,60.05899502265295,
right,go,1,0,1,0,5,4,34,4,526.0295660495758,None,1,0.11272597312927246,526.0295660495758,None,526.2609419822693,None,527.2669310569763,527.5945191383362,527.2669310569763,527.5945191383362,526.2609419822693,None,526.2609419822693,None,526.2609419822693,None,-1,-1,1,True,597.1741676330566,297.6100444793701,right,529.04310297966,None,pilot3,icub,clamp,2021_Dec_20_1353,exp,2021.2.3,60.05899502265295,
right,go,1,0,1,0,5,5,35,3,529.5559251308441,None,1,0.09626007080078125,529.5559251308441,None,529.7858150005341,None,530.784567117691,531.1508090496063,530.784567117691,531.1508090496063,529.7858150005341,None,529.7858150005341,None,529.7858150005341,None,-1,-1,1,True,302.98542976379395,393.95880699157715,right,532.3719899654388,None,pilot3,icub,clamp,2021_Dec_20_1353,exp,2021.2.3,60.05899502265295,
left,go,1,0,1,0,6,0,36,0,532.8897130489349,None,1,0.013567924499511719,532.8897130489349,None,532.9976761341095,None,534.0039141178131,534.356861114502,534.0039141178131,534.356861114502,532.9976761341095,None,532.9976761341095,None,532.9976761341095,None,-1,-1,1,True,193.8488483428955,407.82833099365234,left,535.4897241592407,None,pilot3,icub,clamp,2021_Dec_20_1353,exp,2021.2.3,60.05899502265295,
left,go,1,0,1,0,6,1,37,0,536.0190870761871,None,1,1.7898099422454834,536.0190870761871,None,537.9289879798889,None,538.9381210803986,539.2984521389008,538.9381210803986,539.2984521389008,537.9289879798889,None,537.9289879798889,None,537.9289879798889,None,-1,-1,1,True,222.87774085998535,320.87087631225586,left,540.3747270107269,None,pilot3,icub,clamp,2021_Dec_20_1353,exp,2021.2.3,60.05899502265295,
right,go,1,0,1,0,6,2,38,4,540.8838121891022,None,1,0.07248401641845703,540.8838121891022,None,541.0561921596527,None,542.0819640159607,542.4232020378113,542.0819640159607,542.4232020378113,541.0561921596527,None,541.0561921596527,None,541.0561921596527,None,-1,-1,1,True,301.3911247253418,336.7037773132324,right,543.586709022522,None,pilot3,icub,clamp,2021_Dec_20_1353,exp,2021.2.3,60.05899502265295,
right,go,1,0,1,0,6,3,39,4,544.1037211418152,None,1,0.08963298797607422,544.1037211418152,None,544.2788591384888,None,545.2693359851837,545.6176040172577,545.2693359851837,545.6176040172577,544.2788591384888,None,544.2788591384888,None,544.2788591384888,None,-1,-1,1,True,294.98815536499023,370.3932762145996,right,546.8099200725555,None,pilot3,icub,clamp,2021_Dec_20_1353,exp,2021.2.3,60.05899502265295,
left,go,1,0,1,0,6,4,40,1,547.3147921562195,None,1,0.10849905014038086,547.3147921562195,None,547.5474820137024,None,548.5683760643005,548.9165670871735,548.5683760643005,548.9165670871735,547.5474820137024,None,547.5474820137024,None,547.5474820137024,None,-1,-1,1,True,457.51357078552246,339.1227722167969,left,550.2431881427765,None,pilot3,icub,clamp,2021_Dec_20_1353,exp,2021.2.3,60.05899502265295,
left,go,1,0,1,0,6,5,41,0,550.7683250904083,None,1,0.1444869041442871,550.7683250904083,None,550.99853515625,None,551.9950339794159,552.3455011844635,551.9950339794159,552.3455011844635,550.99853515625,None,550.99853515625,None,550.99853515625,None,-1,-1,1,True,288.04540634155273,414.5209789276123,left,553.5719139575958,None,pilot3,icub,clamp,2021_Dec_20_1353,exp,2021.2.3,60.05899502265295,
right,stop,1,0,1,0,7,0,42,5,554.0889270305634,None,1,0.21229290962219238,554.0889270305634,None,554.3866720199585,None,555.3809740543365,555.7172219753265,555.3809740543365,555.7172219753265,554.3866720199585,None,554.3866720199585,None,554.3866720199585,None,150,50,0,True,169.50631141662598,388.78464698791504,right,556.8467030525208,None,pilot3,icub,clamp,2021_Dec_20_1353,exp,2021.2.3,60.05899502265295,
left,stop,1,0,1,0,7,1,43,2,557.3432750701904,None,1,0.7922048568725586,557.3432750701904,None,558.2585611343384,None,559.2655820846558,559.6298871040344,559.2655820846558,559.6298871040344,558.2585611343384,None,558.2585611343384,None,558.2585611343384,None,,,0,False,-1.0,-1.0,-1,560.1027600765228,None,pilot3,icub,clamp,2021_Dec_20_1353,exp,2021.2.3,60.05899502265295,
right,stop,1,0,1,0,7,2,44,5,560.6156041622162,None,1,1.071774959564209,560.6156041622162,None,561.7744181156158,None,562.7972590923309,563.1458339691162,562.7972590923309,563.1458339691162,561.7744181156158,None,561.7744181156158,None,561.7744181156158,None,150,0,0,True,487.54143714904785,279.6618938446045,right,564.4439041614532,None,pilot3,icub,clamp,2021_Dec_20_1353,exp,2021.2.3,60.05899502265295,
left,go,1,0,1,0,7,3,45,1,564.9619109630585,None,1,0.5108451843261719,564.9619109630585,None,565.5581781864166,None,566.5548830032349,566.9142100811005,566.5548830032349,566.9142100811005,565.5581781864166,None,565.5581781864166,None,565.5581781864166,None,-1,-1,1,True,395.9658145904541,356.30297660827637,left,568.2024371623993,None,pilot3,icub,clamp,2021_Dec_20_1353,exp,2021.2.3,60.05899502265295,
right,go,1,0,1,0,7,4,46,3,568.7167429924011,None,1,0.05348992347717285,568.7167429924011,None,568.8861889839172,None,569.8981239795685,570.2510390281677,569.8981239795685,570.2510390281677,568.8861889839172,None,568.8861889839172,None,568.8861889839172,None,-1,-1,1,True,403.2025337219238,322.51691818237305,right,571.4965450763702,None,pilot3,icub,clamp,2021_Dec_20_1353,exp,2021.2.3,60.05899502265295,
left,go,1,0,1,0,7,5,47,1,572.0096170902252,None,1,0.17992496490478516,572.0096170902252,None,572.3053541183472,None,573.3287210464478,573.6882290840149,573.3287210464478,573.6882290840149,572.3053541183472,None,572.3053541183472,None,572.3053541183472,None,-1,-1,1,True,358.81662368774414,326.981782913208,left,574.8948240280151,None,pilot3,icub,clamp,2021_Dec_20_1353,exp,2021.2.3,60.05899502265295,
left,stop,1,0,1,0,8,0,48,2,575.425055027008,None,1,0.08728694915771484,575.425055027008,None,575.5978691577911,None,576.6044969558716,576.9302310943604,576.6044969558716,576.9302310943604,575.5978691577911,None,575.5978691577911,None,575.5978691577911,None,150,-50,0,True,425.9359836578369,412.84728050231934,left,578.3461940288544,None,pilot3,icub,clamp,2021_Dec_20_1353,exp,2021.2.3,60.05899502265295,
left,go,1,0,1,0,8,1,49,1,578.8765251636505,None,1,0.46069908142089844,578.8765251636505,None,579.4177641868591,None,580.4138431549072,580.7644951343536,580.4138431549072,580.7644951343536,579.4177641868591,None,579.4177641868591,None,579.4177641868591,None,-1,-1,1,True,424.20244216918945,348.8590717315674,left,582.0956649780273,None,pilot3,icub,clamp,2021_Dec_20_1353,exp,2021.2.3,60.05899502265295,
right,stop,1,0,1,0,8,2,50,5,582.6149950027466,None,1,0.06293797492980957,582.6149950027466,None,582.7805709838867,None,583.7773151397705,584.105947971344,583.7773151397705,584.105947971344,582.7805709838867,None,582.7805709838867,None,582.7805709838867,None,100,-50,0,True,336.82942390441895,384.2508792877197,right,585.3992791175842,None,pilot3,icub,clamp,2021_Dec_20_1353,exp,2021.2.3,60.05899502265295,
right,go,1,0,1,0,8,3,51,4,585.9077091217041,None,1,0.3113119602203369,585.9077091217041,None,586.3256371021271,None,587.3390159606934,587.7063291072845,587.3390159606934,587.7063291072845,586.3256371021271,None,586.3256371021271,None,586.3256371021271,None,-1,-1,1,True,314.910888671875,361.09447479248047,right,588.9079241752625,None,pilot3,icub,clamp,2021_Dec_20_1353,exp,2021.2.3,60.05899502265295,
right,go,1,0,1,0,8,4,52,4,589.429211139679,None,1,0.07698678970336914,589.429211139679,None,589.5997819900513,None,590.6327781677246,590.9843621253967,590.6327781677246,590.9843621253967,589.5997819900513,None,589.5997819900513,None,589.5997819900513,None,-1,-1,1,True,406.68797492980957,375.5841255187988,right,592.2552261352539,None,pilot3,icub,clamp,2021_Dec_20_1353,exp,2021.2.3,60.05899502265295,
left,stop,1,0,1,0,8,5,53,2,592.7604250907898,None,1,0.11490392684936523,592.7604250907898,None,592.9912509918213,None,593.9898581504822,594.3433630466461,593.9898581504822,594.3433630466461,592.9912509918213,None,592.9912509918213,None,592.9912509918213,None,100,-100,1,True,390.87629318237305,-1.0,-1,598.2608470916748,None,pilot3,icub,clamp,2021_Dec_20_1353,exp,2021.2.3,60.05899502265295,
right,go,1,0,1,0,9,0,54,3,598.7933399677277,None,1,0.018365859985351562,598.7933399677277,None,598.9110181331635,None,599.9247360229492,600.2700519561768,599.9247360229492,600.2700519561768,598.9110181331635,None,598.9110181331635,None,598.9110181331635,None,-1,-1,1,True,84.1519832611084,355.7238578796387,right,601.2426331043243,None,pilot3,icub,clamp,2021_Dec_20_1353,exp,2021.2.3,60.05899502265295,
right,go,1,0,1,0,9,1,55,4,601.7472350597382,None,1,0.08791184425354004,601.7472350597382,None,601.9206130504608,None,602.9213700294495,603.2778799533844,602.9213700294495,603.2778799533844,601.9206130504608,None,601.9206130504608,None,601.9206130504608,None,-1,-1,1,True,302.72507667541504,353.96409034729004,right,604.454530954361,None,pilot3,icub,clamp,2021_Dec_20_1353,exp,2021.2.3,60.05899502265295,
right,stop,1,0,1,0,9,2,56,5,604.984610080719,None,1,0.10947608947753906,604.984610080719,None,605.2171490192413,None,606.2073490619659,606.5358300209045,606.2073490619659,606.5358300209045,605.2171490192413,None,605.2171490192413,None,605.2171490192413,None,150,-100,0,True,416.6412353515625,390.16008377075195,right,607.9226281642914,None,pilot3,icub,clamp,2021_Dec_20_1353,exp,2021.2.3,60.05899502265295,
right,stop,1,0,1,0,9,3,57,5,608.4363100528717,None,1,0.5888690948486328,608.4363100528717,None,609.1056711673737,None,610.1065890789032,610.4569280147552,610.1065890789032,610.4569280147552,609.1056711673737,None,609.1056711673737,None,609.1056711673737,None,150,-150,1,True,506.4525604248047,-1.0,-1,614.4994909763336,None,pilot3,icub,clamp,2021_Dec_20_1353,exp,2021.2.3,60.05899502265295,
left,go,1,0,1,0,9,4,58,0,614.9947130680084,None,1,0.617973804473877,614.9947130680084,None,615.7308840751648,None,616.7110769748688,617.0641210079193,616.7110769748688,617.0641210079193,615.7308840751648,None,615.7308840751648,None,615.7308840751648,None,-1,-1,1,True,336.3492488861084,385.1752281188965,left,618.3166370391846,None,pilot3,icub,clamp,2021_Dec_20_1353,exp,2021.2.3,60.05899502265295,
right,go,1,0,1,0,9,5,59,3,618.8322010040283,None,1,0.01848602294921875,618.8322010040283,None,618.9385011196136,None,619.9357330799103,620.2877230644226,619.9357330799103,620.2877230644226,618.9385011196136,None,618.9385011196136,None,618.9385011196136,None,-1,-1,1,True,371.57654762268066,323.50897789001465,right,621.5162780284882,None,pilot3,icub,clamp,2021_Dec_20_1353,exp,2021.2.3,60.05899502265295,
right,go,1,0,1,0,10,0,60,4,622.0309410095215,None,1,0.06111502647399902,622.0309410095215,None,622.203024148941,None,623.2040700912476,623.5606780052185,623.2040700912476,623.5606780052185,622.203024148941,None,622.203024148941,None,622.203024148941,None,-1,-1,1,True,366.56904220581055,374.5150566101074,right,624.8339910507202,None,pilot3,icub,clamp,2021_Dec_20_1353,exp,2021.2.3,60.05899502265295,
right,go,1,0,1,0,10,1,61,3,625.3322231769562,None,1,0.14770102500915527,625.3322231769562,None,625.5653870105743,None,626.5648469924927,626.9284110069275,626.5648469924927,626.9284110069275,625.5653870105743,None,625.5653870105743,None,625.5653870105743,None,-1,-1,1,True,451.141357421875,329.164981842041,right,628.2316291332245,None,pilot3,icub,clamp,2021_Dec_20_1353,exp,2021.2.3,60.05899502265295,
right,stop,1,0,1,0,10,2,62,5,628.7325220108032,None,1,0.12239789962768555,628.7325220108032,None,628.9691891670227,None,630.0003471374512,630.3466970920563,630.0003471374512,630.3466970920563,628.9691891670227,None,628.9691891670227,None,628.9691891670227,None,150,-100,1,True,305.0649166107178,-1.0,-1,634.1833641529083,None,pilot3,icub,clamp,2021_Dec_20_1353,exp,2021.2.3,60.05899502265295,
right,go,1,0,1,0,10,3,63,3,634.7155270576477,None,1,0.987982988357544,634.7155270576477,None,635.8257839679718,None,636.8336219787598,637.1829311847687,636.8336219787598,637.1829311847687,635.8257839679718,None,635.8257839679718,None,635.8257839679718,None,-1,-1,1,True,277.691125869751,353.3926010131836,right,638.3454310894012,None,pilot3,icub,clamp,2021_Dec_20_1353,exp,2021.2.3,60.05899502265295,
right,go,1,0,1,0,10,4,64,3,638.8570320606232,None,1,0.019899845123291016,638.8570320606232,None,638.9672009944916,None,639.98180103302,640.3428971767426,639.98180103302,640.3428971767426,638.9672009944916,None,638.9672009944916,None,638.9672009944916,None,-1,-1,1,True,1515.34104347229,439.1751289367676,right,642.8295030593872,None,pilot3,icub,clamp,2021_Dec_20_1353,exp,2021.2.3,60.05899502265295,
left,go,1,0,1,0,10,5,65,1,643.3276519775391,None,1,0.2259831428527832,643.3276519775391,None,643.6765849590302,None,644.681538105011,645.0269911289215,644.681538105011,645.0269911289215,643.6765849590302,None,643.6765849590302,None,643.6765849590302,None,-1,-1,1,True,281.21423721313477,372.9979991912842,left,646.203889131546,None,pilot3,icub,clamp,2021_Dec_20_1353,exp,2021.2.3,60.05899502265295,
left,go,1,0,1,0,11,0,66,1,646.7215461730957,None,1,1.7270889282226562,646.7215461730957,None,648.5483450889587,None,649.5341231822968,649.8824520111084,649.5341231822968,649.8824520111084,648.5483450889587,None,648.5483450889587,None,648.5483450889587,None,-1,-1,1,True,264.3618583679199,397.5348472595215,left,651.1063230037689,None,pilot3,icub,clamp,2021_Dec_20_1353,exp,2021.2.3,60.05899502265295,
right,go,1,0,1,0,11,1,67,3,651.6317970752716,None,1,0.06499481201171875,651.6317970752716,None,651.8038980960846,None,652.8315789699554,653.1840500831604,652.8315789699554,653.1840500831604,651.8038980960846,None,651.8038980960846,None,651.8038980960846,None,-1,-1,1,True,294.8648929595947,274.3794918060303,right,654.2771310806274,None,pilot3,icub,clamp,2021_Dec_20_1353,exp,2021.2.3,60.05899502265295,
left,stop,1,0,1,0,11,2,68,2,654.8145680427551,None,1,0.05318188667297363,654.8145680427551,None,654.983805179596,None,656.0138599872589,656.3660531044006,656.0138599872589,656.3660531044006,654.983805179596,None,654.983805179596,None,654.983805179596,None,150,-50,0,True,326.4920711517334,320.2502727508545,left,657.5408880710602,None,pilot3,icub,clamp,2021_Dec_20_1353,exp,2021.2.3,60.05899502265295,
left,go,1,0,1,0,11,3,69,0,658.0380811691284,None,1,0.3708178997039795,658.0380811691284,None,658.502228975296,None,659.4997670650482,659.8556079864502,659.4997670650482,659.8556079864502,658.502228975296,None,658.502228975296,None,658.502228975296,None,-1,-1,1,True,266.115665435791,280.3161144256592,left,660.9392449855804,None,pilot3,icub,clamp,2021_Dec_20_1353,exp,2021.2.3,60.05899502265295,
right,stop,1,0,1,0,11,4,70,5,661.4358441829681,None,1,0.10683202743530273,661.4358441829681,None,661.6666560173035,None,662.6734890937805,663.008013010025,662.6734890937805,663.008013010025,661.6666560173035,None,661.6666560173035,None,661.6666560173035,None,100,-50,1,True,316.1602020263672,-1.0,-1,666.8700051307678,None,pilot3,icub,clamp,2021_Dec_20_1353,exp,2021.2.3,60.05899502265295,
left,go,1,0,1,0,11,5,71,1,667.4030220508575,None,1,0.8524880409240723,667.4030220508575,None,668.3888750076294,None,669.3724601268768,669.7390961647034,669.3724601268768,669.7390961647034,668.3888750076294,None,668.3888750076294,None,668.3888750076294,None,-1,-1,1,True,280.7431221008301,419.4488525390625,left,670.9712421894073,None,pilot3,icub,clamp,2021_Dec_20_1353,exp,2021.2.3,60.05899502265295,
left,go,1,0,1,0,12,0,72,1,671.4790961742401,None,1,0.024818897247314453,671.4790961742401,None,671.5896799564362,None,672.5928170681,672.9403960704803,672.5928170681,672.9403960704803,671.5896799564362,None,671.5896799564362,None,671.5896799564362,None,-1,-1,1,True,320.7745552062988,450.549840927124,left,674.2416429519653,None,pilot3,icub,clamp,2021_Dec_20_1353,exp,2021.2.3,60.05899502265295,
right,stop,1,0,1,0,12,1,73,5,674.7474839687347,None,1,0.09137701988220215,674.7474839687347,None,674.919331073761,None,675.931097984314,676.2604670524597,675.931097984314,676.2604670524597,674.919331073761,None,674.919331073761,None,674.919331073761,None,100,0,1,True,331.2382698059082,-1.0,-1,680.1550271511078,None,pilot3,icub,clamp,2021_Dec_20_1353,exp,2021.2.3,60.05899502265295,
left,go,1,0,1,0,12,2,74,0,680.6882700920105,None,1,0.08628392219543457,680.6882700920105,None,680.8685891628265,None,681.8489689826965,682.2124559879303,681.8489689826965,682.2124559879303,680.8685891628265,None,680.8685891628265,None,680.8685891628265,None,,,0,False,-1.0,-1.0,-1,682.7320849895477,None,pilot3,icub,clamp,2021_Dec_20_1353,exp,2021.2.3,60.05899502265295,
left,go,1,0,1,0,12,3,75,1,683.2266640663147,None,1,0.5976760387420654,683.2266640663147,None,683.9639461040497,None,684.9489011764526,685.2963650226593,684.9489011764526,685.2963650226593,683.9639461040497,None,683.9639461040497,None,683.9639461040497,None,-1,-1,1,True,1158.4115028381348,373.87919425964355,left,687.398087978363,None,pilot3,icub,clamp,2021_Dec_20_1353,exp,2021.2.3,60.05899502265295,
left,stop,1,0,1,0,12,4,76,2,687.9151291847229,None,1,0.058268070220947266,687.9151291847229,None,688.081020116806,None,689.0850720405579,689.4361081123352,689.0850720405579,689.4361081123352,688.081020116806,None,688.081020116806,None,688.081020116806,None,100,50,0,True,323.4860897064209,378.8938522338867,left,690.6674451828003,None,pilot3,icub,clamp,2021_Dec_20_1353,exp,2021.2.3,60.05899502265295,
right,go,1,0,1,0,12,5,77,3,691.1872880458832,None,1,0.023350000381469727,691.1872880458832,None,691.2961061000824,None,692.3158960342407,692.6642689704895,692.3158960342407,692.6642689704895,691.2961061000824,None,691.2961061000824,None,691.2961061000824,None,-1,-1,1,True,280.08103370666504,401.228666305542,right,693.8794691562653,None,pilot3,icub,clamp,2021_Dec_20_1353,exp,2021.2.3,60.05899502265295,
left,go,2,0,2,0,0,0,0,0,707.9263410568237,None,1,2.626478910446167,707.9263410568237,None,710.6639211177826,None,711.672219991684,712.0235869884491,711.672219991684,712.0235869884491,710.6639211177826,None,710.6639211177826,None,710.6639211177826,None,-1,-1,1,True,302.3991584777832,362.5321388244629,left,713.2106020450592,None,pilot3,icub,clamp,2021_Dec_20_1353,exp,2021.2.3,60.05899502265295,
left,stop,2,0,2,0,0,1,1,2,713.7458441257477,None,1,1.5273571014404297,713.7458441257477,None,715.4045989513397,None,716.3887419700623,716.7566161155701,716.3887419700623,716.7566161155701,715.4045989513397,None,715.4045989513397,None,715.4045989513397,None,50,50,1,True,309.27562713623047,-1.0,-1,720.5952410697937,None,pilot3,icub,clamp,2021_Dec_20_1353,exp,2021.2.3,60.05899502265295,
right,go,2,0,2,0,0,2,2,4,721.1273131370544,None,1,0.9108309745788574,721.1273131370544,None,722.1732411384583,None,723.1796641349792,723.5387251377106,723.1796641349792,723.5387251377106,722.1732411384583,None,722.1732411384583,None,722.1732411384583,None,-1,-1,1,True,287.6460552215576,309.76009368896484,right,724.6581649780273,None,pilot3,icub,clamp,2021_Dec_20_1353,exp,2021.2.3,60.05899502265295,
right,stop,2,0,2,0,0,3,3,5,725.1931910514832,None,1,2.62792706489563,725.1931910514832,None,727.9482190608978,None,728.9351470470428,729.2874100208282,728.9351470470428,729.2874100208282,727.9482190608978,None,727.9482190608978,None,727.9482190608978,None,100,50,1,True,391.97325706481934,-1.0,-1,733.2115349769592,None,pilot3,icub,clamp,2021_Dec_20_1353,exp,2021.2.3,60.05899502265295,
right,go,2,0,2,0,0,4,4,3,733.7445390224457,None,1,0.05958199501037598,733.7445390224457,None,733.9247369766235,None,734.9345321655273,735.2886440753937,734.9345321655273,735.2886440753937,733.9247369766235,None,733.9247369766235,None,733.9247369766235,None,-1,-1,1,True,271.9738483428955,289.9510860443115,right,736.3701090812683,None,pilot3,icub,clamp,2021_Dec_20_1353,exp,2021.2.3,60.05899502265295,
right,stop,2,0,2,0,0,5,5,5,736.9015500545502,None,1,2.97654390335083,736.9015500545502,None,739.9893510341644,None,740.974091053009,741.3216409683228,740.974091053009,741.3216409683228,739.9893510341644,None,739.9893510341644,None,739.9893510341644,None,100,100,0,True,292.73200035095215,319.55838203430176,right,742.5010330677032,None,pilot3,icub,clamp,2021_Dec_20_1353,exp,2021.2.3,60.05899502265295,
right,go,2,0,2,0,1,0,6,4,743.0181970596313,None,1,0.5103259086608887,743.0181970596313,None,743.6238529682159,None,744.6540131568909,745.0108230113983,744.6540131568909,745.0108230113983,743.6238529682159,None,743.6238529682159,None,743.6238529682159,None,-1,-1,1,True,358.41822624206543,321.6860294342041,right,746.2117130756378,None,pilot3,icub,clamp,2021_Dec_20_1353,exp,2021.2.3,60.05899502265295,
left,go,2,0,2,0,1,1,7,0,746.726361989975,None,1,1.2928290367126465,746.726361989975,None,748.1377110481262,None,749.1207849979401,749.4631471633911,749.1207849979401,749.4631471633911,748.1377110481262,None,748.1377110481262,None,748.1377110481262,None,-1,-1,1,True,264.8806571960449,307.8329563140869,left,750.6041550636292,None,pilot3,icub,clamp,2021_Dec_20_1353,exp,2021.2.3,60.05899502265295,
left,go,2,0,2,0,1,2,8,0,751.1220550537109,None,1,0.12435698509216309,751.1220550537109,None,751.3552269935608,None,752.3572521209717,752.7144329547882,752.3572521209717,752.7144329547882,751.3552269935608,None,751.3552269935608,None,751.3552269935608,None,-1,-1,1,True,268.2981491088867,307.6796531677246,left,753.8159129619598,None,pilot3,icub,clamp,2021_Dec_20_1353,exp,2021.2.3,60.05899502265295,
right,go,2,0,2,0,1,3,9,3,754.3319170475006,None,1,1.0022130012512207,754.3319170475006,None,755.432715177536,None,756.4144730567932,756.7845220565796,756.4144730567932,756.7845220565796,755.432715177536,None,755.432715177536,None,755.432715177536,None,-1,-1,1,True,261.30032539367676,337.9793167114258,right,757.9200551509857,None,pilot3,icub,clamp,2021_Dec_20_1353,exp,2021.2.3,60.05899502265295,
left,go,2,0,2,0,1,4,10,1,758.4214429855347,None,1,0.022979021072387695,758.4214429855347,None,758.5300509929657,None,759.5276501178741,759.874899148941,759.5276501178741,759.874899148941,758.5300509929657,None,758.5300509929657,None,758.5300509929657,None,-1,-1,1,True,259.38892364501953,347.9650020599365,left,761.0150949954987,None,pilot3,icub,clamp,2021_Dec_20_1353,exp,2021.2.3,60.05899502265295,
left,go,2,0,2,0,1,5,11,0,761.5302491188049,None,1,1.0717129707336426,761.5302491188049,None,762.6859521865845,None,763.6742789745331,764.027951002121,763.6742789745331,764.027951002121,762.6859521865845,None,762.6859521865845,None,762.6859521865845,None,-1,-1,1,True,266.2801742553711,286.9558334350586,left,765.1019620895386,None,pilot3,icub,clamp,2021_Dec_20_1353,exp,2021.2.3,60.05899502265295,
left,stop,2,0,2,0,2,0,12,2,765.6065101623535,None,1,0.05985903739929199,765.6065101623535,None,765.7712500095367,None,766.7846319675446,767.137736082077,766.7846319675446,767.137736082077,765.7712500095367,None,765.7712500095367,None,765.7712500095367,None,100,50,0,True,135.78033447265625,316.9112205505371,left,768.1259660720825,None,pilot3,icub,clamp,2021_Dec_20_1353,exp,2021.2.3,60.05899502265295,
right,go,2,0,2,0,2,1,13,4,768.6447820663452,None,1,0.18174004554748535,768.6447820663452,None,768.937744140625,None,769.934219121933,770.3029689788818,769.934219121933,770.3029689788818,768.937744140625,None,768.937744140625,None,768.937744140625,None,-1,-1,1,True,320.173978805542,359.1446876525879,right,771.4949171543121,None,pilot3,icub,clamp,2021_Dec_20_1353,exp,2021.2.3,60.05899502265295,
right,go,2,0,2,0,2,2,14,3,772.0005941390991,None,1,0.05375790596008301,772.0005941390991,None,772.1669900417328,None,773.1656560897827,773.5286061763763,773.1656560897827,773.5286061763763,772.1669900417328,None,772.1669900417328,None,772.1669900417328,None,-1,-1,1,True,393.6328887939453,325.2594470977783,right,774.7720379829407,None,pilot3,icub,clamp,2021_Dec_20_1353,exp,2021.2.3,60.05899502265295,
left,go,2,0,2,0,2,3,15,1,775.2888631820679,None,1,0.04768991470336914,775.2888631820679,None,775.4606900215149,None,776.4691791534424,776.8249280452728,776.4691791534424,776.8249280452728,775.4606900215149,None,775.4606900215149,None,775.4606900215149,None,-1,-1,1,True,353.4970283508301,401.2928009033203,left,778.1118559837341,None,pilot3,icub,clamp,2021_Dec_20_1353,exp,2021.2.3,60.05899502265295,
left,go,2,0,2,0,2,4,16,1,778.6152009963989,None,1,0.11825203895568848,778.6152009963989,None,778.8488099575043,None,779.853823184967,780.2160620689392,779.853823184967,780.2160620689392,778.8488099575043,None,778.8488099575043,None,778.8488099575043,None,-1,-1,1,True,417.85740852355957,333.9805603027344,left,781.4991929531097,None,pilot3,icub,clamp,2021_Dec_20_1353,exp,2021.2.3,60.05899502265295,
left,go,2,0,2,0,2,5,17,1,782.0104291439056,None,1,0.026139020919799805,782.0104291439056,None,782.1220350265503,None,783.124997138977,783.4873991012573,783.124997138977,783.4873991012573,782.1220350265503,None,782.1220350265503,None,782.1220350265503,None,-1,-1,1,True,223.53529930114746,309.35001373291016,left,784.5527141094208,None,pilot3,icub,clamp,2021_Dec_20_1353,exp,2021.2.3,60.05899502265295,
right,stop,2,0,2,0,3,0,18,5,785.0818791389465,None,1,0.08596301078796387,785.0818791389465,None,785.2534670829773,None,786.2510390281677,786.5942311286926,786.2510390281677,786.5942311286926,785.2534670829773,None,785.2534670829773,None,785.2534670829773,None,50,50,0,True,328.8865089416504,365.3883934020996,right,787.8401629924774,None,pilot3,icub,clamp,2021_Dec_20_1353,exp,2021.2.3,60.05899502265295,
right,stop,2,0,2,0,3,1,19,5,788.3507800102234,None,1,0.518704891204834,788.3507800102234,None,788.9550831317902,None,789.9496929645538,790.2976641654968,789.9496929645538,790.2976641654968,788.9550831317902,None,788.9550831317902,None,788.9550831317902,None,50,0,1,True,321.7763900756836,-1.0,-1,794.1592390537262,None,pilot3,icub,clamp,2021_Dec_20_1353,exp,2021.2.3,60.05899502265295,
right,go,2,0,2,0,3,2,20,3,794.6524331569672,None,1,0.040402889251708984,794.6524331569672,None,794.8327920436859,None,None,None,None,None,794.8327920436859,None,794.8327920436859,None,794.8327920436859,None,,,0,False,-1.0,-1.0,-1,795.4535231590271,None,pilot3,icub,clamp,2021_Dec_20_1353,exp,2021.2.3,60.05899502265295,
left,go,2,0,2,0,3,3,21,0,795.9491140842438,None,1,0.7717409133911133,795.9491140842438,None,796.8083620071411,None,797.809061050415,798.1541020870209,797.809061050415,798.1541020870209,796.8083620071411,None,796.8083620071411,None,796.8083620071411,None,-1,-1,1,True,390.78807830810547,438.4417533874512,left,799.5452630519867,None,pilot3,icub,clamp,2021_Dec_20_1353,exp,2021.2.3,60.05899502265295,
right,go,2,0,2,0,3,4,22,4,800.0525419712067,None,1,0.07317709922790527,800.0525419712067,None,800.225574016571,None,801.254093170166,801.6078300476074,801.254093170166,801.6078300476074,800.225574016571,None,800.225574016571,None,800.225574016571,None,-1,-1,1,True,487.9474639892578,328.87744903564453,right,802.9391469955444,None,pilot3,icub,clamp,2021_Dec_20_1353,exp,2021.2.3,60.05899502265295,
right,go,2,0,2,0,3,5,23,4,803.4554259777069,None,1,1.7374649047851562,803.4554259777069,None,805.282732963562,None,806.263072013855,806.6303629875183,806.263072013855,806.6303629875183,805.282732963562,None,805.282732963562,None,805.282732963562,None,,,0,False,3000.412940979004,-1.0,-1,810.1685180664062,None,pilot3,icub,clamp,2021_Dec_20_1353,exp,2021.2.3,60.05899502265295,
left,go,2,0,2,0,4,0,24,1,810.6629819869995,None,1,1.5556309223175049,810.6629819869995,None,812.319657087326,None,813.3149681091309,813.6576499938965,813.3149681091309,813.6576499938965,812.319657087326,None,812.319657087326,None,812.319657087326,None,-1,-1,1,True,482.90228843688965,294.6944236755371,left,814.9736089706421,None,pilot3,icub,clamp,2021_Dec_20_1353,exp,2021.2.3,60.05899502265295,
right,stop,2,0,2,0,4,1,25,5,815.4952239990234,None,1,0.06119513511657715,815.4952239990234,None,815.6657140254974,None,816.6695210933685,817.0188381671906,816.6695210933685,817.0188381671906,815.6657140254974,None,815.6657140254974,None,815.6657140254974,None,50,50,0,True,302.7210235595703,348.4663963317871,right,818.197683095932,None,pilot3,icub,clamp,2021_Dec_20_1353,exp,2021.2.3,60.05899502265295,
left,go,2,0,2,0,4,2,26,0,818.7050330638885,None,1,0.11607599258422852,818.7050330638885,None,818.9355561733246,None,819.9356400966644,820.2881350517273,819.9356400966644,820.2881350517273,818.9355561733246,None,818.9355561733246,None,818.9355561733246,None,-1,-1,1,True,443.2547092437744,386.11340522766113,left,821.6717700958252,None,pilot3,icub,clamp,2021_Dec_20_1353,exp,2021.2.3,60.05899502265295,
left,go,2,0,2,0,4,3,27,1,822.2023780345917,None,1,0.01814889907836914,822.2023780345917,None,822.3109540939331,None,823.2964010238647,823.6399099826813,823.2964010238647,823.6399099826813,822.3109540939331,None,822.3109540939331,None,822.3109540939331,None,-1,-1,1,True,337.2018337249756,330.5084705352783,left,824.8849420547485,None,pilot3,icub,clamp,2021_Dec_20_1353,exp,2021.2.3,60.05899502265295,
left,stop,2,0,2,0,4,4,28,2,825.395101070404,None,1,0.06046319007873535,825.395101070404,None,825.5642800331116,None,826.577183008194,826.9247281551361,826.577183008194,826.9247281551361,825.5642800331116,None,825.5642800331116,None,825.5642800331116,None,50,0,0,True,430.18198013305664,376.68776512145996,left,828.2587640285492,None,pilot3,icub,clamp,2021_Dec_20_1353,exp,2021.2.3,60.05899502265295,
left,go,2,0,2,0,4,5,29,1,828.7867181301117,None,1,0.304610013961792,828.7867181301117,None,829.207631111145,None,830.2045819759369,830.5491421222687,830.2045819759369,830.5491421222687,829.207631111145,None,829.207631111145,None,829.207631111145,None,-1,-1,1,True,345.15857696533203,410.54797172546387,left,831.8605949878693,None,pilot3,icub,clamp,2021_Dec_20_1353,exp,2021.2.3,60.05899502265295,
left,go,2,0,2,0,5,0,30,0,832.3738210201263,None,1,1.2079260349273682,832.3738210201263,None,833.6981241703033,None,834.6677470207214,835.0122120380402,834.6677470207214,835.0122120380402,833.6981241703033,None,833.6981241703033,None,833.6981241703033,None,-1,-1,1,True,359.5144748687744,361.5429401397705,left,836.3037710189819,None,pilot3,icub,clamp,2021_Dec_20_1353,exp,2021.2.3,60.05899502265295,
right,go,2,0,2,0,5,1,31,3,836.8387320041656,None,1,1.01993989944458,836.8387320041656,None,837.9956459999084,None,838.9784030914307,839.3288750648499,838.9784030914307,839.3288750648499,837.9956459999084,None,837.9956459999084,None,837.9956459999084,None,-1,-1,1,True,360.23855209350586,417.93346405029297,right,840.6636860370636,None,pilot3,icub,clamp,2021_Dec_20_1353,exp,2021.2.3,60.05899502265295,
left,stop,2,0,2,0,5,2,32,2,841.1848421096802,None,1,1.72086501121521,841.1848421096802,None,843.0347731113434,None,844.0070021152496,844.3632850646973,844.0070021152496,844.3632850646973,843.0347731113434,None,843.0347731113434,None,843.0347731113434,None,0,0,1,True,332.1990966796875,-1.0,-1,848.270504951477,None,pilot3,icub,clamp,2021_Dec_20_1353,exp,2021.2.3,60.05899502265295,
right,go,2,0,2,0,5,3,33,3,848.8017990589142,None,1,0.0988929271697998,848.8017990589142,None,848.9820621013641,None,849.9660611152649,850.311007976532,849.9660611152649,850.311007976532,848.9820621013641,None,848.9820621013641,None,848.9820621013641,None,-1,-1,1,True,323.1208324432373,427.71434783935547,right,851.6285090446472,None,pilot3,icub,clamp,2021_Dec_20_1353,exp,2021.2.3,60.05899502265295,
right,stop,2,0,2,0,5,4,34,5,852.1438090801239,None,1,0.0692899227142334,852.1438090801239,None,852.3134021759033,None,853.3296699523926,853.7002701759338,853.3296699523926,853.7002701759338,852.3134021759033,None,852.3134021759033,None,852.3134021759033,None,50,0,1,True,439.35489654541016,-1.0,-1,857.6328680515289,None,pilot3,icub,clamp,2021_Dec_20_1353,exp,2021.2.3,60.05899502265295,
left,go,2,0,2,0,5,5,35,0,858.1654810905457,None,1,0.04816699028015137,858.1654810905457,None,858.3444421291351,None,859.3212821483612,859.6819009780884,859.3212821483612,859.6819009780884,858.3444421291351,None,858.3444421291351,None,858.3444421291351,None,-1,-1,1,True,272.95780181884766,349.9617576599121,left,860.8386390209198,None,pilot3,icub,clamp,2021_Dec_20_1353,exp,2021.2.3,60.05899502265295,
left,go,2,0,2,0,6,0,36,0,861.3591501712799,None,1,0.09986996650695801,861.3591501712799,None,861.5343129634857,None,862.5443170070648,862.88747215271,862.5443170070648,862.88747215271,861.5343129634857,None,861.5343129634857,None,861.5343129634857,None,-1,-1,1,True,356.6417694091797,331.5889835357666,left,864.0979080200195,None,pilot3,icub,clamp,2021_Dec_20_1353,exp,2021.2.3,60.05899502265295,
left,go,2,0,2,0,6,1,37,1,864.6079671382904,None,1,0.10417318344116211,864.6079671382904,None,864.8415281772614,None,865.863657951355,866.225102186203,865.863657951355,866.225102186203,864.8415281772614,None,864.8415281772614,None,864.8415281772614,None,-1,-1,1,True,323.8799571990967,383.0280303955078,left,867.454756975174,None,pilot3,icub,clamp,2021_Dec_20_1353,exp,2021.2.3,60.05899502265295,
left,go,2,0,2,0,6,2,38,1,867.9724199771881,None,1,0.19458484649658203,867.9724199771881,None,868.2678771018982,None,869.2709851264954,869.6257419586182,869.2709851264954,869.6257419586182,868.2678771018982,None,868.2678771018982,None,868.2678771018982,None,-1,-1,1,True,299.73363876342773,414.28518295288086,left,870.8533821105957,None,pilot3,icub,clamp,2021_Dec_20_1353,exp,2021.2.3,60.05899502265295,
right,go,2,0,2,0,6,3,39,3,871.3605690002441,None,1,0.19337201118469238,871.3605690002441,None,871.6544771194458,None,872.6776611804962,873.0235760211945,872.6776611804962,873.0235760211945,871.6544771194458,None,871.6544771194458,None,871.6544771194458,None,-1,-1,1,True,279.7214984893799,323.9450454711914,right,874.1586329936981,None,pilot3,icub,clamp,2021_Dec_20_1353,exp,2021.2.3,60.05899502265295,
right,stop,2,0,2,0,6,4,40,5,874.6725749969482,None,1,0.08299088478088379,874.6725749969482,None,874.8461651802063,None,875.8734130859375,876.2437109947205,875.8734130859375,876.2437109947205,874.8461651802063,None,874.8461651802063,None,874.8461651802063,None,50,50,0,True,329.2844295501709,356.5371036529541,right,877.4218680858612,None,pilot3,icub,clamp,2021_Dec_20_1353,exp,2021.2.3,60.05899502265295,
left,stop,2,0,2,0,6,5,41,2,877.9290721416473,None,1,0.8168528079986572,877.9290721416473,None,878.8464431762695,None,879.8452181816101,880.1892461776733,879.8452181816101,880.1892461776733,878.8464431762695,None,878.8464431762695,None,878.8464431762695,None,50,0,1,True,331.12192153930664,-1.0,-1,884.0923790931702,None,pilot3,icub,clamp,2021_Dec_20_1353,exp,2021.2.3,60.05899502265295,
right,go,2,0,2,0,7,0,42,3,884.5864570140839,None,1,0.26413702964782715,884.5864570140839,None,884.9539761543274,None,885.9467580318451,886.3090920448303,885.9467580318451,886.3090920448303,884.9539761543274,None,884.9539761543274,None,884.9539761543274,None,-1,-1,1,True,272.92847633361816,361.5443706512451,right,887.4543771743774,None,pilot3,icub,clamp,2021_Dec_20_1353,exp,2021.2.3,60.05899502265295,
right,go,2,0,2,0,7,1,43,3,887.9611129760742,None,1,0.0677180290222168,887.9611129760742,None,888.1332151889801,None,889.1655559539795,889.4888880252838,889.1655559539795,889.4888880252838,888.1332151889801,None,888.1332151889801,None,888.1332151889801,None,-1,-1,1,True,409.1188907623291,348.19674491882324,right,890.7716910839081,None,pilot3,icub,clamp,2021_Dec_20_1353,exp,2021.2.3,60.05899502265295,
right,stop,2,0,2,0,7,2,44,5,891.2970430850983,None,1,0.03777885437011719,891.2970430850983,None,891.4102351665497,None,892.404776096344,892.7589871883392,892.404776096344,892.7589871883392,891.4102351665497,None,891.4102351665497,None,891.4102351665497,None,100,0,1,True,304.0602207183838,-1.0,-1,896.5898461341858,None,pilot3,icub,clamp,2021_Dec_20_1353,exp,2021.2.3,60.05899502265295,
right,stop,2,0,2,0,7,3,45,5,897.1214339733124,None,1,0.5769999027252197,897.1214339733124,None,897.797562122345,None,898.8001279830933,899.136372089386,898.8001279830933,899.136372089386,897.797562122345,None,897.797562122345,None,897.797562122345,None,100,50,0,True,310.24909019470215,341.28284454345703,right,900.3246660232544,None,pilot3,icub,clamp,2021_Dec_20_1353,exp,2021.2.3,60.05899502265295,
left,stop,2,0,2,0,7,4,46,2,900.8375451564789,None,1,0.9821650981903076,900.8375451564789,None,901.9361970424652,None,902.9526400566101,903.3179671764374,902.9526400566101,903.3179671764374,901.9361970424652,None,901.9361970424652,None,901.9361970424652,None,100,0,0,True,322.4291801452637,337.76330947875977,left,904.5046479701996,None,pilot3,icub,clamp,2021_Dec_20_1353,exp,2021.2.3,60.05899502265295,
right,go,2,0,2,0,7,5,47,3,905.0216081142426,None,1,0.17510509490966797,905.0216081142426,None,905.3168470859528,None,906.3433501720428,906.6967151165009,906.3433501720428,906.6967151165009,905.3168470859528,None,905.3168470859528,None,905.3168470859528,None,-1,-1,1,True,547.3802089691162,431.53858184814453,right,908.1938371658325,None,pilot3,icub,clamp,2021_Dec_20_1353,exp,2021.2.3,60.05899502265295,
left,stop,2,0,2,0,8,0,48,2,908.6933271884918,None,1,0.20846199989318848,908.6933271884918,None,908.9878621101379,None,909.9999639987946,910.3543040752411,909.9999639987946,910.3543040752411,908.9878621101379,None,908.9878621101379,None,908.9878621101379,None,50,0,1,True,456.2504291534424,-1.0,-1,914.3343529701233,None,pilot3,icub,clamp,2021_Dec_20_1353,exp,2021.2.3,60.05899502265295,
right,go,2,0,2,0,8,1,49,3,914.8663711547852,None,1,0.9190330505371094,914.8663711547852,None,915.9131581783295,None,916.9042360782623,917.2699360847473,916.9042360782623,917.2699360847473,915.9131581783295,None,915.9131581783295,None,915.9131581783295,None,-1,-1,1,True,269.26112174987793,360.7749938964844,right,918.4240980148315,None,pilot3,icub,clamp,2021_Dec_20_1353,exp,2021.2.3,60.05899502265295,
left,go,2,0,2,0,8,2,50,0,918.9355471134186,None,1,0.02044081687927246,918.9355471134186,None,919.0466461181641,None,920.0639309883118,920.4330670833588,920.0639309883118,920.4330670833588,919.0466461181641,None,919.0466461181641,None,919.0466461181641,None,-1,-1,1,True,304.08430099487305,408.6484909057617,left,921.6364390850067,None,pilot3,icub,clamp,2021_Dec_20_1353,exp,2021.2.3,60.05899502265295,
left,stop,2,0,2,0,8,3,51,2,922.1456739902496,None,1,0.0811910629272461,922.1456739902496,None,922.3174929618835,None,923.3427541255951,923.6972341537476,923.3427541255951,923.6972341537476,922.3174929618835,None,922.3174929618835,None,922.3174929618835,None,100,0,0,True,408.0796241760254,348.30617904663086,left,924.9813549518585,None,pilot3,icub,clamp,2021_Dec_20_1353,exp,2021.2.3,60.05899502265295,
right,go,2,0,2,0,8,4,52,4,925.4997320175171,None,1,0.2560279369354248,925.4997320175171,None,925.8567900657654,None,926.8879220485687,927.2552630901337,926.8879220485687,927.2552630901337,925.8567900657654,None,925.8567900657654,None,925.8567900657654,None,-1,-1,1,True,335.8879089355469,404.69837188720703,right,928.491327047348,None,pilot3,icub,clamp,2021_Dec_20_1353,exp,2021.2.3,60.05899502265295,
left,stop,2,0,2,0,8,5,53,2,929.0026741027832,None,1,1.1318678855895996,929.0026741027832,None,930.2287220954895,None,931.214616060257,931.5510189533234,931.214616060257,931.5510189533234,930.2287220954895,None,930.2287220954895,None,930.2287220954895,None,50,0,1,True,368.57032775878906,-1.0,-1,935.4846920967102,None,pilot3,icub,clamp,2021_Dec_20_1353,exp,2021.2.3,60.05899502265295,
left,go,2,0,2,0,9,0,54,0,936.0166010856628,None,1,1.105679988861084,936.0166010856628,None,937.2521281242371,None,938.2325220108032,938.5939531326294,938.2325220108032,938.5939531326294,937.2521281242371,None,937.2521281242371,None,937.2521281242371,None,-1,-1,1,True,316.79701805114746,363.4967803955078,left,939.8003511428833,None,pilot3,icub,clamp,2021_Dec_20_1353,exp,2021.2.3,60.05899502265295,
right,stop,2,0,2,0,9,1,55,5,940.3178250789642,None,1,1.3564999103546143,940.3178250789642,None,941.7907781600952,None,942.7774910926819,943.1325771808624,942.7774910926819,943.1325771808624,941.7907781600952,None,941.7907781600952,None,941.7907781600952,None,100,0,1,True,262.07470893859863,-1.0,-1,946.9528751373291,None,pilot3,icub,clamp,2021_Dec_20_1353,exp,2021.2.3,60.05899502265295,
right,stop,2,0,2,0,9,2,56,5,947.4849810600281,None,1,1.2033360004425049,947.4849810600281,None,948.7806551456451,None,949.7592561244965,950.1166460514069,949.7592561244965,950.1166460514069,948.7806551456451,None,948.7806551456451,None,948.7806551456451,None,100,50,0,True,305.0112724304199,369.51422691345215,right,951.3412401676178,None,pilot3,icub,clamp,2021_Dec_20_1353,exp,2021.2.3,60.05899502265295,
right,go,2,0,2,0,9,3,57,3,951.8554680347443,None,1,1.0957810878753662,951.8554680347443,None,953.0625071525574,None,954.0391261577606,954.3995430469513,954.0391261577606,954.3995430469513,953.0625071525574,None,953.0625071525574,None,953.0625071525574,None,-1,-1,1,True,371.2177276611328,339.53118324279785,right,955.6432540416718,None,pilot3,icub,clamp,2021_Dec_20_1353,exp,2021.2.3,60.05899502265295,
right,go,2,0,2,0,9,4,58,3,956.1392180919647,None,1,1.3399500846862793,956.1392180919647,None,957.5628759860992,None,958.5648610591888,958.918603181839,958.5648610591888,958.918603181839,957.5628759860992,None,957.5628759860992,None,957.5628759860992,None,-1,-1,1,True,276.6263484954834,305.44281005859375,right,960.0281870365143,None,pilot3,icub,clamp,2021_Dec_20_1353,exp,2021.2.3,60.05899502265295,
left,go,2,0,2,0,9,5,59,0,960.5557479858398,None,1,0.9694228172302246,960.5557479858398,None,961.6535680294037,None,962.6782550811768,963.0297350883484,962.6782550811768,963.0297350883484,961.6535680294037,None,961.6535680294037,None,961.6535680294037,None,-1,-1,1,True,277.8799533843994,303.14135551452637,left,964.1020600795746,None,pilot3,icub,clamp,2021_Dec_20_1353,exp,2021.2.3,60.05899502265295,
right,go,2,0,2,0,10,0,60,4,964.6242301464081,None,1,0.9109530448913574,964.6242301464081,None,965.6586010456085,None,966.6392130851746,966.9873871803284,966.6392130851746,966.9873871803284,965.6586010456085,None,965.6586010456085,None,965.6586010456085,None,-1,-1,1,True,254.60338592529297,313.8916492462158,right,968.1240820884705,None,pilot3,icub,clamp,2021_Dec_20_1353,exp,2021.2.3,60.05899502265295,
left,go,2,0,2,0,10,1,61,1,968.661602973938,None,1,1.1818029880523682,968.661602973938,None,969.940591096878,None,970.9173259735107,971.2705471515656,970.9173259735107,971.2705471515656,969.940591096878,None,969.940591096878,None,969.940591096878,None,-1,-1,1,True,298.3894348144531,372.4017143249512,left,972.5128891468048,None,pilot3,icub,clamp,2021_Dec_20_1353,exp,2021.2.3,60.05899502265295,
right,go,2,0,2,0,10,2,62,4,973.0173330307007,None,1,0.1252450942993164,973.0173330307007,None,973.2477951049805,None,974.2823331356049,974.6319930553436,974.2823331356049,974.6319930553436,973.2477951049805,None,973.2477951049805,None,973.2477951049805,None,-1,-1,1,True,319.3981647491455,350.4800796508789,right,975.8193981647491,None,pilot3,icub,clamp,2021_Dec_20_1353,exp,2021.2.3,60.05899502265295,
left,go,2,0,2,0,10,3,63,1,976.3459839820862,None,1,1.0981590747833252,976.3459839820862,None,977.5733680725098,None,978.554258108139,978.9167070388794,978.554258108139,978.9167070388794,977.5733680725098,None,977.5733680725098,None,977.5733680725098,None,-1,-1,1,True,267.0738697052002,360.34512519836426,left,980.0968391895294,None,pilot3,icub,clamp,2021_Dec_20_1353,exp,2021.2.3,60.05899502265295,
left,go,2,0,2,0,10,4,64,1,980.6105620861053,None,1,0.48416614532470703,980.6105620861053,None,981.2149579524994,None,982.2424931526184,982.591108083725,982.2424931526184,982.591108083725,981.2149579524994,None,981.2149579524994,None,981.2149579524994,None,-1,-1,1,True,350.813627243042,281.1107635498047,left,983.7476880550385,None,pilot3,icub,clamp,2021_Dec_20_1353,exp,2021.2.3,60.05899502265295,
right,stop,2,0,2,0,10,5,65,5,984.263885974884,None,1,0.07497715950012207,984.263885974884,None,984.4398381710052,None,985.4331681728363,985.7748260498047,985.4331681728363,985.7748260498047,984.4398381710052,None,984.4398381710052,None,984.4398381710052,None,100,0,0,True,286.0603332519531,351.1812686920166,right,986.987545967102,None,pilot3,icub,clamp,2021_Dec_20_1353,exp,2021.2.3,60.05899502265295,
left,stop,2,0,2,0,11,0,66,2,987.4991660118103,None,1,0.5432989597320557,987.4991660118103,None,988.1600520610809,None,989.1719360351562,989.5248191356659,989.1719360351562,989.5248191356659,988.1600520610809,None,988.1600520610809,None,988.1600520610809,None,100,-50,1,True,419.6031093597412,-1.0,-1,993.470360994339,None,pilot3,icub,clamp,2021_Dec_20_1353,exp,2021.2.3,60.05899502265295,
left,go,2,0,2,0,11,1,67,1,993.9644620418549,None,1,0.9246628284454346,993.9644620418549,None,995.0104410648346,None,996.0213170051575,996.3826260566711,996.0213170051575,996.3826260566711,995.0104410648346,None,995.0104410648346,None,995.0104410648346,None,-1,-1,1,True,312.38532066345215,343.86539459228516,left,997.556193113327,None,pilot3,icub,clamp,2021_Dec_20_1353,exp,2021.2.3,60.05899502265295,
right,go,2,0,2,0,11,2,68,4,998.0683500766754,None,1,0.02423381805419922,998.0683500766754,None,998.1757140159607,None,999.1853239536285,999.546872138977,999.1853239536285,999.546872138977,998.1757140159607,None,998.1757140159607,None,998.1757140159607,None,-1,-1,1,True,283.219575881958,422.19042778015137,right,1000.7862529754639,None,pilot3,icub,clamp,2021_Dec_20_1353,exp,2021.2.3,60.05899502265295,
left,stop,2,0,2,0,11,3,69,2,1001.287563085556,None,1,0.010830879211425781,1001.287563085556,None,1001.3954210281372,None,1002.4160401821136,1002.756639957428,1002.4160401821136,1002.756639957428,1001.3954210281372,None,1001.3954210281372,None,1001.3954210281372,None,150,-50,0,True,364.3631935119629,364.54057693481445,left,1004.0147070884705,None,pilot3,icub,clamp,2021_Dec_20_1353,exp,2021.2.3,60.05899502265295,
left,stop,2,0,2,0,11,4,70,2,1004.5231130123138,None,1,0.37973999977111816,1004.5231130123138,None,1005.0031001567841,None,1006.0063841342926,1006.3609890937805,1006.0063841342926,1006.3609890937805,1005.0031001567841,None,1005.0031001567841,None,1005.0031001567841,None,100,-50,1,True,344.61045265197754,-1.0,-1,1010.2469680309296,None,pilot3,icub,clamp,2021_Dec_20_1353,exp,2021.2.3,60.05899502265295,
right,go,2,0,2,0,11,5,71,4,1010.7416040897369,None,1,0.6364829540252686,1010.7416040897369,None,1011.4778950214386,None,1012.4657180309296,1012.8222241401672,1012.4657180309296,1012.8222241401672,1011.4778950214386,None,1011.4778950214386,None,1011.4778950214386,None,-1,-1,1,True,244.5378303527832,257.15088844299316,right,1013.8549311161041,None,pilot3,icub,clamp,2021_Dec_20_1353,exp,2021.2.3,60.05899502265295,
left,stop,2,0,2,0,12,0,72,2,1014.3944749832153,None,1,2.361452102661133,1014.3944749832153,None,1016.84530210495,None,1017.8267669677734,1018.1878061294556,1017.8267669677734,1018.1878061294556,1016.84530210495,None,1016.84530210495,None,1016.84530210495,None,150,-50,1,True,289.2303466796875,-1.0,-1,1021.9977819919586,None,pilot3,icub,clamp,2021_Dec_20_1353,exp,2021.2.3,60.05899502265295,
right,go,2,0,2,0,12,1,73,4,1022.5294761657715,None,1,0.9815340042114258,1022.5294761657715,None,1023.6364951133728,None,1024.6163210868835,1024.9674081802368,1024.6163210868835,1024.9674081802368,1023.6364951133728,None,1023.6364951133728,None,1023.6364951133728,None,-1,-1,1,True,377.7353763580322,399.2936611175537,right,1026.3061661720276,None,pilot3,icub,clamp,2021_Dec_20_1353,exp,2021.2.3,60.05899502265295,
right,go,2,0,2,0,12,2,74,4,1026.8277740478516,None,1,0.11054587364196777,1026.8277740478516,None,1027.0576431751251,None,1028.0650951862335,1028.4172110557556,1028.0650951862335,1028.4172110557556,1027.0576431751251,None,1027.0576431751251,None,1027.0576431751251,None,-1,-1,1,True,324.88298416137695,389.56332206726074,right,1029.664206981659,None,pilot3,icub,clamp,2021_Dec_20_1353,exp,2021.2.3,60.05899502265295,
left,go,2,0,2,0,12,3,75,0,1030.1817080974579,None,1,0.10838794708251953,1030.1817080974579,None,1030.4072060585022,None,1031.436026096344,1031.788966178894,1031.436026096344,1031.788966178894,1030.4072060585022,None,1030.4072060585022,None,1030.4072060585022,None,-1,-1,1,True,417.6821708679199,392.95053482055664,left,1033.0847120285034,None,pilot3,icub,clamp,2021_Dec_20_1353,exp,2021.2.3,60.05899502265295,
right,go,2,0,2,0,12,4,76,4,1033.5885360240936,None,1,0.20857501029968262,1033.5885360240936,None,1033.8827211856842,None,1034.8848040103912,1035.2396440505981,1034.8848040103912,1035.2396440505981,1033.8827211856842,None,1033.8827211856842,None,1033.8827211856842,None,-1,-1,1,True,264.0671730041504,358.53075981140137,right,1036.3907179832458,None,pilot3,icub,clamp,2021_Dec_20_1353,exp,2021.2.3,60.05899502265295,
right,stop,2,0,2,0,12,5,77,5,1036.8950929641724,None,1,0.060276031494140625,1036.8950929641724,None,1037.065211057663,None,1038.069092988968,1038.4121940135956,1038.069092988968,1038.4121940135956,1037.065211057663,None,1037.065211057663,None,1037.065211057663,None,200,-50,0,True,282.5202941894531,296.16594314575195,right,1039.525638103485,None,pilot3,icub,clamp,2021_Dec_20_1353,exp,2021.2.3,60.05899502265295,
right,go,3,0,3,0,0,0,0,3,1071.5168070793152,None,1,7.148406982421875,1071.5168070793152,None,1078.7935020923615,None,1079.791260957718,1080.1405019760132,1079.791260957718,1080.1405019760132,1078.7935020923615,None,1078.7935020923615,None,1078.7935020923615,None,-1,-1,1,True,285.45331954956055,279.3917655944824,right,1081.2459771633148,None,pilot3,icub,clamp,2021_Dec_20_1353,exp,2021.2.3,60.05899502265295,
left,stop,3,0,3,0,0,1,1,2,1081.7673380374908,None,1,1.3353939056396484,1081.7673380374908,None,1083.2296340465546,None,1084.214781999588,1084.5751609802246,1084.214781999588,1084.5751609802246,1083.2296340465546,None,1083.2296340465546,None,1083.2296340465546,None,200,-100,0,True,289.2303466796875,224.78961944580078,left,1085.646878004074,None,pilot3,icub,clamp,2021_Dec_20_1353,exp,2021.2.3,60.05899502265295,
right,go,3,0,3,0,0,2,2,4,1086.1381270885468,None,1,0.9009058475494385,1086.1381270885468,None,1087.1145570278168,None,1088.1246461868286,1088.4611639976501,1088.1246461868286,1088.4611639976501,1087.1145570278168,None,1087.1145570278168,None,1087.1145570278168,None,-1,-1,1,True,291.49460792541504,325.85787773132324,right,1089.627657175064,None,pilot3,icub,clamp,2021_Dec_20_1353,exp,2021.2.3,60.05899502265295,
right,go,3,0,3,0,0,3,3,4,1090.144474029541,None,1,1.4052369594573975,1090.144474029541,None,1091.6803350448608,None,1092.6653480529785,1093.023728132248,1092.6653480529785,1093.023728132248,1091.6803350448608,None,1091.6803350448608,None,1091.6803350448608,None,-1,-1,1,True,296.9489097595215,297.50680923461914,right,1094.1457941532135,None,pilot3,icub,clamp,2021_Dec_20_1353,exp,2021.2.3,60.05899502265295,
right,go,3,0,3,0,0,4,4,3,1094.6630730628967,None,1,1.9905688762664795,1094.6630730628967,None,1096.7452421188354,None,1097.7297921180725,1098.0675451755524,1097.7297921180725,1098.0675451755524,1096.7452421188354,None,1096.7452421188354,None,1096.7452421188354,None,-1,-1,1,True,153.0156135559082,387.61186599731445,right,1099.1597380638123,None,pilot3,icub,clamp,2021_Dec_20_1353,exp,2021.2.3,60.05899502265295,
left,go,3,0,3,0,0,5,5,0,1099.6802790164948,None,1,0.4652249813079834,1099.6802790164948,None,1100.2260539531708,None,1101.2524700164795,1101.6157541275024,1101.2524700164795,1101.6157541275024,1100.2260539531708,None,1100.2260539531708,None,1100.2260539531708,None,-1,-1,1,True,307.4071407318115,445.98865509033203,left,1102.8605961799622,None,pilot3,icub,clamp,2021_Dec_20_1353,exp,2021.2.3,60.05899502265295,
right,go,3,0,3,0,1,0,6,3,1103.3910009860992,None,1,0.35505104064941406,1103.3910009860992,None,1103.8700649738312,None,1104.8713490962982,1105.2341041564941,1104.8713490962982,1105.2341041564941,1103.8700649738312,None,1103.8700649738312,None,1103.8700649738312,None,-1,-1,1,True,285.4037284851074,350.5394458770752,right,1106.3934981822968,None,pilot3,icub,clamp,2021_Dec_20_1353,exp,2021.2.3,60.05899502265295,
left,go,3,0,3,0,1,1,7,0,1106.9098300933838,None,1,0.2901289463043213,1106.9098300933838,None,1107.3280889987946,None,1108.3425040245056,1108.7050080299377,1108.3425040245056,1108.7050080299377,1107.3280889987946,None,1107.3280889987946,None,1107.3280889987946,None,-1,-1,1,True,152.15063095092773,461.9557857513428,left,1109.850764989853,None,pilot3,icub,clamp,2021_Dec_20_1353,exp,2021.2.3,60.05899502265295,
left,go,3,0,3,0,1,2,8,1,1110.3601241111755,None,1,0.22674107551574707,1110.3601241111755,None,1110.7142281532288,None,1111.7071130275726,1112.065768957138,1111.7071130275726,1112.065768957138,1110.7142281532288,None,1110.7142281532288,None,1110.7142281532288,None,-1,-1,1,True,260.1625919342041,470.8259105682373,left,1113.3478260040283,None,pilot3,icub,clamp,2021_Dec_20_1353,exp,2021.2.3,60.05899502265295,
left,stop,3,0,3,0,1,3,9,2,1113.8522119522095,None,1,0.19466805458068848,1113.8522119522095,None,1114.151076078415,None,1115.147686958313,1115.5163979530334,1115.147686958313,1115.5163979530334,1114.151076078415,None,1114.151076078415,None,1114.151076078415,None,150,-100,0,True,276.0305404663086,351.17340087890625,left,1116.6813910007477,None,pilot3,icub,clamp,2021_Dec_20_1353,exp,2021.2.3,60.05899502265295,
right,stop,3,0,3,0,1,4,10,5,1117.1804611682892,None,1,0.2894299030303955,1117.1804611682892,None,1117.5983641147614,None,1118.629664182663,1118.9893171787262,1118.629664182663,1118.9893171787262,1117.5983641147614,None,1117.5983641147614,None,1117.5983641147614,None,100,-100,1,True,308.6726665496826,-1.0,-1,1122.7932651042938,None,pilot3,icub,clamp,2021_Dec_20_1353,exp,2021.2.3,60.05899502265295,
