Holder,Action,blocks.thisRepN,blocks.thisTrialN,blocks.thisN,blocks.thisIndex,trials.thisRepN,trials.thisTrialN,trials.thisN,trials.thisIndex,start_msg.started,start_msg.stopped,RespButton_start_trial.keys,RespButton_start_trial.rt,RespButton_start_trial.started,RespButton_start_trial.stopped,GREEN.started,GREEN.stopped,LEFT_RED.started,LEFT_RED.stopped,RIGHT_RED.started,RIGHT_RED.stopped,LEFT_CIRCLE.started,LEFT_CIRCLE.stopped,CENTER_CIRCLE.started,CENTER_CIRCLE.stopped,RIGHT_CIRCLE.started,RIGHT_CIRCLE.stopped,SOUND_DELAY_MS_LEFT,SOUND_DELAY_MS_RIGHT,CORRECT,VALIDITY,RELEASE_TIME,TOUCH_TIME,BOTTLE_RESPONSE_POSITION,text.started,text.stopped,pid,left_position,right_position,date,expName,psychopyVersion,frameRate,
right,go,0,0,0,0,0,0,0,4,56.12023615837097,None,1,3.9013519287109375,56.12023615837097,None,60.10681414604187,None,61.13790011405945,61.48818302154541,61.13790011405945,61.48818302154541,60.10681414604187,None,60.10681414604187,None,60.10681414604187,None,-1,-1,1,3,372.4541664123535,564.1210079193115,right,62.92047715187073,None,alice_pilot,icub,clamp,2021_Dec_17_1408,exp,2021.2.3,60.14097835999381,
right,stop,0,0,0,0,0,1,1,5,63.44032907485962,None,1,2.018954038619995,63.44032907485962,None,65.58178520202637,None,66.6062400341034,66.97231101989746,66.6062400341034,66.97231101989746,65.58178520202637,None,65.58178520202637,None,65.58178520202637,None,500,500,0,3,495.73636054992676,663.5348796844482,right,68.62837314605713,None,alice_pilot,icub,clamp,2021_Dec_17_1408,exp,2021.2.3,60.14097835999381,
left,stop,0,0,0,0,0,2,2,2,69.14635014533997,None,1,2.592067003250122,69.14635014533997,None,71.84918904304504,None,72.85552215576172,73.182049036026,72.85552215576172,73.182049036026,71.84918904304504,None,71.84918904304504,None,71.84918904304504,None,500,450,1,3,515.960693359375,-1.0,-1,77.26687908172607,None,alice_pilot,icub,clamp,2021_Dec_17_1408,exp,2021.2.3,60.14097835999381,
right,stop,0,0,0,0,0,3,3,5,77.76076698303223,None,1,0.639625072479248,77.76076698303223,None,78.4967360496521,None,79.47244000434875,79.81998801231384,79.47244000434875,79.81998801231384,78.4967360496521,None,78.4967360496521,None,78.4967360496521,None,550,450,1,3,427.1705150604248,-1.0,-1,83.81537413597107,None,alice_pilot,icub,clamp,2021_Dec_17_1408,exp,2021.2.3,60.14097835999381,
left,go,0,0,0,0,0,4,4,0,84.34583616256714,None,1,0.7078940868377686,84.34583616256714,None,85.14255809783936,None,86.14921116828918,86.49889397621155,86.14921116828918,86.49889397621155,85.14255809783936,None,85.14255809783936,None,85.14255809783936,None,-1,-1,1,3,664.9236679077148,955.7468891143799,left,88.65157413482666,None,alice_pilot,icub,clamp,2021_Dec_17_1408,exp,2021.2.3,60.14097835999381,
left,stop,0,0,0,0,0,5,5,2,89.16988706588745,None,1,1.4602971076965332,89.16988706588745,None,90.75877499580383,None,91.75799798965454,92.1239321231842,91.75799798965454,92.1239321231842,90.75877499580383,None,90.75877499580383,None,90.75877499580383,None,550,500,1,3,316.2846565246582,-1.0,-1,95.96983599662781,None,alice_pilot,icub,clamp,2021_Dec_17_1408,exp,2021.2.3,60.14097835999381,
left,stop,0,0,0,0,1,0,6,2,96.4995470046997,None,1,0.66507887840271,96.4995470046997,None,97.29667210578918,None,98.27889800071716,98.63356709480286,98.27889800071716,98.63356709480286,97.29667210578918,None,97.29667210578918,None,97.29667210578918,None,600,500,1,3,438.7686252593994,-1.0,-1,102.63780212402344,None,alice_pilot,icub,clamp,2021_Dec_17_1408,exp,2021.2.3,60.14097835999381,
right,stop,0,0,0,0,1,1,7,5,103.16794109344482,None,1,1.6927320957183838,103.16794109344482,None,104.95059013366699,None,105.93201017379761,106.29751801490784,105.93201017379761,106.29751801490784,104.95059013366699,None,104.95059013366699,None,104.95059013366699,None,650,500,1,3,495.2373504638672,-1.0,-1,110.32426810264587,None,alice_pilot,icub,clamp,2021_Dec_17_1408,exp,2021.2.3,60.14097835999381,
left,go,0,0,0,0,1,2,8,1,110.85501003265381,None,1,4.594719886779785,110.85501003265381,None,115.55293107032776,None,116.53816509246826,116.8898401260376,116.53816509246826,116.8898401260376,115.55293107032776,None,115.55293107032776,None,115.55293107032776,None,-1,-1,1,3,463.53840827941895,953.9825916290283,left,118.83573007583618,None,alice_pilot,icub,clamp,2021_Dec_17_1408,exp,2021.2.3,60.14097835999381,
left,stop,0,0,0,0,1,3,9,2,119.34094500541687,None,1,2.028398036956787,119.34094500541687,None,121.48813819885254,None,122.5111939907074,122.87392711639404,122.5111939907074,122.87392711639404,121.48813819885254,None,121.48813819885254,None,121.48813819885254,None,650,550,1,3,414.0453338623047,-1.0,-1,126.8026831150055,None,alice_pilot,icub,clamp,2021_Dec_17_1408,exp,2021.2.3,60.14097835999381,
right,go,0,0,0,0,1,4,10,3,127.33341717720032,None,1,0.8872518539428711,127.33341717720032,None,128.31664299964905,None,129.29004096984863,129.639808177948,129.29004096984863,129.639808177948,128.31664299964905,None,128.31664299964905,None,128.31664299964905,None,-1,-1,1,3,626.1374950408936,845.9739685058594,right,131.67663407325745,None,alice_pilot,icub,clamp,2021_Dec_17_1408,exp,2021.2.3,60.14097835999381,
left,go,0,0,0,0,1,5,11,0,132.21085119247437,None,1,1.2261428833007812,132.21085119247437,None,133.5550501346588,None,134.58176517486572,134.93321800231934,134.58176517486572,134.93321800231934,133.5550501346588,None,133.5550501346588,None,133.5550501346588,None,-1,-1,1,3,402.74953842163086,873.8417625427246,left,136.73069620132446,None,alice_pilot,icub,clamp,2021_Dec_17_1408,exp,2021.2.3,60.14097835999381,
right,stop,0,0,0,0,2,0,12,5,137.23827600479126,None,1,1.1267988681793213,137.23827600479126,None,138.4584140777588,None,139.48818516731262,139.8214201927185,139.48818516731262,139.8214201927185,138.4584140777588,None,138.4584140777588,None,138.4584140777588,None,700,550,1,3,507.24267959594727,-1.0,-1,143.84623503684998,None,alice_pilot,icub,clamp,2021_Dec_17_1408,exp,2021.2.3,60.14097835999381,
left,go,0,0,0,0,2,1,13,0,144.3762230873108,None,1,0.703233003616333,144.3762230873108,None,145.17251801490784,None,146.1562511920929,146.5060110092163,146.1562511920929,146.5060110092163,145.17251801490784,None,145.17251801490784,None,145.17251801490784,None,-1,-1,1,3,584.4235420227051,822.458028793335,left,148.47677302360535,None,alice_pilot,icub,clamp,2021_Dec_17_1408,exp,2021.2.3,60.14097835999381,
left,go,0,0,0,0,2,2,14,1,148.98917412757874,None,1,1.1055800914764404,148.98917412757874,None,150.20748114585876,None,151.21860599517822,151.57190918922424,151.21860599517822,151.57190918922424,150.20748114585876,None,150.20748114585876,None,150.20748114585876,None,-1,-1,1,3,536.1838340759277,898.0147838592529,left,153.52909517288208,None,alice_pilot,icub,clamp,2021_Dec_17_1408,exp,2021.2.3,60.14097835999381,
left,go,0,0,0,0,2,3,15,1,154.04813313484192,None,1,1.3492629528045654,154.04813313484192,None,155.51602911949158,None,156.52172803878784,156.87592601776123,156.52172803878784,156.87592601776123,155.51602911949158,None,155.51602911949158,None,155.51602911949158,None,-1,-1,1,3,556.8709373474121,854.5956611633301,left,158.8115451335907,None,alice_pilot,icub,clamp,2021_Dec_17_1408,exp,2021.2.3,60.14097835999381,
right,go,0,0,0,0,2,4,16,3,159.320631980896,None,1,1.3075509071350098,159.320631980896,None,160.7282509803772,None,161.75511002540588,162.11318516731262,161.75511002540588,162.11318516731262,160.7282509803772,None,160.7282509803772,None,160.7282509803772,None,-1,-1,1,3,622.0169067382812,830.5215835571289,right,164.0522861480713,None,alice_pilot,icub,clamp,2021_Dec_17_1408,exp,2021.2.3,60.14097835999381,
right,go,0,0,0,0,2,5,17,4,164.56516098976135,None,1,0.8236219882965088,164.56516098976135,None,165.47942209243774,None,166.47419714927673,166.82016015052795,166.47419714927673,166.82016015052795,165.47942209243774,None,165.47942209243774,None,165.47942209243774,None,-1,-1,1,3,512.8309726715088,828.9010524749756,right,168.71499705314636,None,alice_pilot,icub,clamp,2021_Dec_17_1408,exp,2021.2.3,60.14097835999381,
left,go,0,0,0,0,3,0,18,0,169.2454969882965,None,1,0.8887579441070557,169.2454969882965,None,170.21962904930115,None,171.22453713417053,171.5617241859436,171.22453713417053,171.5617241859436,170.21962904930115,None,170.21962904930115,None,170.21962904930115,None,-1,-1,1,3,580.7926654815674,838.8686180114746,left,173.51844000816345,None,alice_pilot,icub,clamp,2021_Dec_17_1408,exp,2021.2.3,60.14097835999381,
left,stop,0,0,0,0,3,1,19,2,174.04235100746155,None,1,1.2245030403137207,174.04235100746155,None,175.38588619232178,None,176.40938210487366,176.75495314598083,176.40938210487366,176.75495314598083,175.38588619232178,None,175.38588619232178,None,175.38588619232178,None,700,600,0,3,692.0299530029297,595.5266952514648,left,178.5773720741272,None,alice_pilot,icub,clamp,2021_Dec_17_1408,exp,2021.2.3,60.14097835999381,
left,go,0,0,0,0,3,2,20,1,179.09724712371826,None,1,3.0676190853118896,179.09724712371826,None,182.28906917572021,None,183.31970715522766,183.6726450920105,183.31970715522766,183.6726450920105,182.28906917572021,None,182.28906917572021,None,182.28906917572021,None,-1,-1,1,3,715.7642841339111,983.2110404968262,left,185.86451411247253,None,alice_pilot,icub,clamp,2021_Dec_17_1408,exp,2021.2.3,60.14097835999381,
right,go,0,0,0,0,3,3,21,4,186.37572312355042,None,1,1.1210930347442627,186.37572312355042,None,187.5977771282196,None,188.5885009765625,188.93708205223083,188.5885009765625,188.93708205223083,187.5977771282196,None,187.5977771282196,None,187.5977771282196,None,-1,-1,1,3,555.9210777282715,946.2611675262451,right,191.0123200416565,None,alice_pilot,icub,clamp,2021_Dec_17_1408,exp,2021.2.3,60.14097835999381,
left,go,0,0,0,0,3,4,22,0,191.5321819782257,None,1,0.9205448627471924,191.5321819782257,None,192.56812620162964,None,193.57132506370544,193.92775297164917,193.57132506370544,193.92775297164917,192.56812620162964,None,192.56812620162964,None,192.56812620162964,None,-1,-1,1,3,589.8737907409668,906.5442085266113,left,195.94419312477112,None,alice_pilot,icub,clamp,2021_Dec_17_1408,exp,2021.2.3,60.14097835999381,
left,stop,0,0,0,0,3,5,23,2,196.46321201324463,None,1,0.730748176574707,196.46321201324463,None,197.30305910110474,None,198.31205415725708,198.65185713768005,198.31205415725708,198.65185713768005,197.30305910110474,None,197.30305910110474,None,197.30305910110474,None,650,600,1,3,587.9933834075928,-1.0,-1,202.76605916023254,None,alice_pilot,icub,clamp,2021_Dec_17_1408,exp,2021.2.3,60.14097835999381,
left,stop,0,0,0,0,4,0,24,2,203.29691815376282,None,1,0.6833529472351074,203.29691815376282,None,204.09299206733704,None,205.0700922012329,205.4159290790558,205.0700922012329,205.4159290790558,204.09299206733704,None,204.09299206733704,None,204.09299206733704,None,700,600,1,3,841.6709899902344,-1.0,-1,209.8209249973297,None,alice_pilot,icub,clamp,2021_Dec_17_1408,exp,2021.2.3,60.14097835999381,
right,stop,0,0,0,0,4,1,25,5,210.3525869846344,None,1,1.3266220092773438,210.3525869846344,None,211.76903820037842,None,212.7483470439911,213.10097002983093,212.7483470439911,213.10097002983093,211.76903820037842,None,211.76903820037842,None,211.76903820037842,None,750,600,1,3,664.2239093780518,-1.0,-1,217.33719110488892,None,alice_pilot,icub,clamp,2021_Dec_17_1408,exp,2021.2.3,60.14097835999381,
left,stop,0,0,0,0,4,2,26,2,217.8677179813385,None,1,1.129504919052124,217.8677179813385,None,219.0968132019043,None,220.07967805862427,220.4209930896759,220.07967805862427,220.4209930896759,219.0968132019043,None,219.0968132019043,None,219.0968132019043,None,750,650,1,3,592.1726226806641,-1.0,-1,224.58556413650513,None,alice_pilot,icub,clamp,2021_Dec_17_1408,exp,2021.2.3,60.14097835999381,
left,go,0,0,0,0,4,3,27,0,225.11744809150696,None,1,0.7846038341522217,225.11744809150696,None,226.0365161895752,None,227.01491904258728,227.36376404762268,227.01491904258728,227.36376404762268,226.0365161895752,None,226.0365161895752,None,226.0365161895752,None,-1,-1,1,3,366.7025566101074,1272.3240852355957,left,229.57331609725952,None,alice_pilot,icub,clamp,2021_Dec_17_1408,exp,2021.2.3,60.14097835999381,
left,go,0,0,0,0,4,4,28,0,230.08125019073486,None,1,1.0740230083465576,230.08125019073486,None,231.24078011512756,None,232.23284196853638,232.57842206954956,232.23284196853638,232.57842206954956,231.24078011512756,None,231.24078011512756,None,231.24078011512756,None,-1,-1,1,3,595.8278179168701,1012.373685836792,left,234.7555341720581,None,alice_pilot,icub,clamp,2021_Dec_17_1408,exp,2021.2.3,60.14097835999381,
right,go,0,0,0,0,4,5,29,3,235.27614307403564,None,1,1.218353033065796,235.27614307403564,None,236.6172890663147,None,237.62453317642212,237.96954107284546,237.62453317642212,237.96954107284546,236.6172890663147,None,236.6172890663147,None,236.6172890663147,None,-1,-1,1,3,532.9689979553223,1025.6781578063965,right,240.05927300453186,None,alice_pilot,icub,clamp,2021_Dec_17_1408,exp,2021.2.3,60.14097835999381,
right,go,0,0,0,0,5,0,30,4,240.57953000068665,None,1,1.0170280933380127,240.57953000068665,None,241.67711901664734,None,242.6751570701599,243.02576518058777,242.6751570701599,243.02576518058777,241.67711901664734,None,241.67711901664734,None,241.67711901664734,None,-1,-1,1,3,530.189037322998,865.4024600982666,right,244.97921109199524,None,alice_pilot,icub,clamp,2021_Dec_17_1408,exp,2021.2.3,60.14097835999381,
right,stop,0,0,0,0,5,1,31,5,245.4927670955658,None,1,1.1858770847320557,245.4927670955658,None,246.7741801738739,None,247.78409719467163,248.14506316184998,247.78409719467163,248.14506316184998,246.7741801738739,None,246.7741801738739,None,246.7741801738739,None,800,650,1,3,451.20716094970703,-1.0,-1,252.118577003479,None,alice_pilot,icub,clamp,2021_Dec_17_1408,exp,2021.2.3,60.14097835999381,
right,go,0,0,0,0,5,2,32,3,252.64920902252197,None,1,0.7118260860443115,252.64920902252197,None,253.44559907913208,None,254.42300605773926,254.77445006370544,254.42300605773926,254.77445006370544,253.44559907913208,None,253.44559907913208,None,253.44559907913208,None,-1,-1,1,3,606.2769889831543,1066.6561126708984,right,257.0175201892853,None,alice_pilot,icub,clamp,2021_Dec_17_1408,exp,2021.2.3,60.14097835999381,
right,stop,0,0,0,0,5,3,33,5,257.5414001941681,None,1,0.9571959972381592,257.5414001941681,None,258.57892513275146,None,259.5807590484619,259.911315202713,259.5807590484619,259.911315202713,258.57892513275146,None,258.57892513275146,None,258.57892513275146,None,800,700,1,3,637.7239227294922,-1.0,-1,264.121356010437,None,alice_pilot,icub,clamp,2021_Dec_17_1408,exp,2021.2.3,60.14097835999381,
left,go,0,0,0,0,5,4,34,0,264.65337014198303,None,1,0.5246491432189941,264.65337014198303,None,265.2643070220947,None,266.24303007125854,266.59644317626953,266.24303007125854,266.59644317626953,265.2643070220947,None,265.2643070220947,None,265.2643070220947,None,-1,-1,1,3,708.2281112670898,1168.661117553711,left,269.03679299354553,None,alice_pilot,icub,clamp,2021_Dec_17_1408,exp,2021.2.3,60.14097835999381,
left,go,0,0,0,0,5,5,35,1,269.5527021884918,None,1,1.0168230533599854,269.5527021884918,None,270.6502320766449,None,271.65347814559937,272.0001561641693,271.65347814559937,272.0001561641693,270.6502320766449,None,270.6502320766449,None,270.6502320766449,None,-1,-1,1,3,725.059986114502,859.3204021453857,left,274.11398005485535,None,alice_pilot,icub,clamp,2021_Dec_17_1408,exp,2021.2.3,60.14097835999381,
right,stop,0,0,0,0,6,0,36,5,274.63319516181946,None,1,1.7061100006103516,274.63319516181946,None,276.4730980396271,None,277.49613904953003,277.8508620262146,277.49613904953003,277.8508620262146,276.4730980396271,None,276.4730980396271,None,276.4730980396271,None,800,750,1,3,655.8687686920166,-1.0,-1,282.0374779701233,None,alice_pilot,icub,clamp,2021_Dec_17_1408,exp,2021.2.3,60.14097835999381,
right,go,0,0,0,0,6,1,37,4,282.56846714019775,None,1,0.693444013595581,282.56846714019775,None,283.3652150630951,None,284.34710907936096,284.7053380012512,284.34710907936096,284.7053380012512,283.3652150630951,None,283.3652150630951,None,283.3652150630951,None,-1,-1,1,3,816.9147968292236,828.2327651977539,right,286.87534403800964,None,alice_pilot,icub,clamp,2021_Dec_17_1408,exp,2021.2.3,60.14097835999381,
right,go,0,0,0,0,6,2,38,3,287.3907539844513,None,1,1.0139470100402832,287.3907539844513,None,288.49017310142517,None,289.51062297821045,289.8680181503296,289.51062297821045,289.8680181503296,288.49017310142517,None,288.49017310142517,None,288.49017310142517,None,-1,-1,1,3,476.00269317626953,870.5060482025146,right,291.7418031692505,None,alice_pilot,icub,clamp,2021_Dec_17_1408,exp,2021.2.3,60.14097835999381,
left,stop,0,0,0,0,6,3,39,2,292.2475621700287,None,1,1.1861591339111328,292.2475621700287,None,293.53486800193787,None,294.5394470691681,294.9044771194458,294.5394470691681,294.9044771194458,293.53486800193787,None,293.53486800193787,None,293.53486800193787,None,800,800,0,3,517.4963474273682,914.0474796295166,left,296.8711590766907,None,alice_pilot,icub,clamp,2021_Dec_17_1408,exp,2021.2.3,60.14097835999381,
left,go,0,0,0,0,6,4,40,0,297.3921811580658,None,1,2.0654470920562744,297.3921811580658,None,299.543133020401,None,300.56054520606995,300.92056703567505,300.56054520606995,300.92056703567505,299.543133020401,None,299.543133020401,None,299.543133020401,None,-1,-1,1,3,811.5758895874023,1128.3111572265625,left,303.38845109939575,None,alice_pilot,icub,clamp,2021_Dec_17_1408,exp,2021.2.3,60.14097835999381,
right,go,0,0,0,0,6,5,41,4,303.9037630558014,None,1,0.8347539901733398,303.9037630558014,None,304.8188021183014,None,305.84428000450134,306.20391511917114,305.84428000450134,306.20391511917114,304.8188021183014,None,304.8188021183014,None,304.8188021183014,None,-1,-1,1,3,477.7967929840088,1017.991304397583,right,308.1823410987854,None,alice_pilot,icub,clamp,2021_Dec_17_1408,exp,2021.2.3,60.14097835999381,
left,stop,0,0,0,0,7,0,42,2,308.7017810344696,None,1,0.8866519927978516,308.7017810344696,None,309.6790990829468,None,310.7104561328888,311.06828808784485,310.7104561328888,311.06828808784485,309.6790990829468,None,309.6790990829468,None,309.6790990829468,None,750,800,1,3,432.42406845092773,-1.0,-1,314.98953104019165,None,alice_pilot,icub,clamp,2021_Dec_17_1408,exp,2021.2.3,60.14097835999381,
right,go,0,0,0,0,7,1,43,3,315.51868319511414,None,1,0.9210569858551025,315.51868319511414,None,316.56359004974365,None,317.5479221343994,317.91450905799866,317.5479221343994,317.91450905799866,316.56359004974365,None,316.56359004974365,None,316.56359004974365,None,-1,-1,1,3,746.8087673187256,1674.3755340576172,right,320.85426211357117,None,alice_pilot,icub,clamp,2021_Dec_17_1408,exp,2021.2.3,60.14097835999381,
left,stop,0,0,0,0,7,2,44,2,321.36712312698364,None,1,1.323030948638916,321.36712312698364,None,322.77543020248413,None,323.78429198265076,324.12690806388855,323.78429198265076,324.12690806388855,322.77543020248413,None,322.77543020248413,None,322.77543020248413,None,800,800,1,3,730.2474975585938,-1.0,-1,328.3852701187134,None,alice_pilot,icub,clamp,2021_Dec_17_1408,exp,2021.2.3,60.14097835999381,
right,go,0,0,0,0,7,3,45,4,328.9181730747223,None,1,0.8344461917877197,328.9181730747223,None,329.8390040397644,None,330.8493461608887,331.2190511226654,330.8493461608887,331.2190511226654,329.8390040397644,None,329.8390040397644,None,329.8390040397644,None,-1,-1,1,3,659.3623161315918,1016.2703990936279,right,333.3977921009064,None,alice_pilot,icub,clamp,2021_Dec_17_1408,exp,2021.2.3,60.14097835999381,
left,go,0,0,0,0,7,4,46,1,333.9064130783081,None,1,1.411755084991455,333.9064130783081,None,335.4335980415344,None,336.4421479701996,336.8107490539551,336.4421479701996,336.8107490539551,335.4335980415344,None,335.4335980415344,None,335.4335980415344,None,-1,-1,1,3,633.8653564453125,1030.3339958190918,left,338.98790097236633,None,alice_pilot,icub,clamp,2021_Dec_17_1408,exp,2021.2.3,60.14097835999381,
right,go,0,0,0,0,7,5,47,3,339.50400614738464,None,1,0.9862082004547119,339.50400614738464,None,340.60382199287415,None,341.6084771156311,341.9603261947632,341.6084771156311,341.9603261947632,340.60382199287415,None,340.60382199287415,None,340.60382199287415,None,-1,-1,1,3,647.4637985229492,841.7172431945801,right,343.9720480442047,None,alice_pilot,icub,clamp,2021_Dec_17_1408,exp,2021.2.3,60.14097835999381,
left,go,0,0,0,0,8,0,48,1,344.49330615997314,None,1,1.2418630123138428,344.49330615997314,None,345.836510181427,None,346.8716661930084,347.1956181526184,346.8716661930084,347.1956181526184,345.836510181427,None,345.836510181427,None,345.836510181427,None,-1,-1,1,3,644.8111534118652,896.2488174438477,left,349.28859305381775,None,alice_pilot,icub,clamp,2021_Dec_17_1408,exp,2021.2.3,60.14097835999381,
right,go,0,0,0,0,8,1,49,3,349.7881920337677,None,1,1.6950700283050537,349.7881920337677,None,351.5635461807251,None,352.5666470527649,352.92144298553467,352.5666470527649,352.92144298553467,351.5635461807251,None,351.5635461807251,None,351.5635461807251,None,-1,-1,1,3,513.7097835540771,958.4407806396484,right,354.9383840560913,None,alice_pilot,icub,clamp,2021_Dec_17_1408,exp,2021.2.3,60.14097835999381,
left,go,0,0,0,0,8,2,50,0,355.43848299980164,None,1,1.383241891860962,355.43848299980164,None,356.90730905532837,None,357.9200232028961,358.273344039917,357.9200232028961,358.273344039917,356.90730905532837,None,356.90730905532837,None,356.90730905532837,None,-1,-1,1,3,549.3731498718262,765.8014297485352,left,360.1192011833191,None,alice_pilot,icub,clamp,2021_Dec_17_1408,exp,2021.2.3,60.14097835999381,
right,go,0,0,0,0,8,3,51,4,360.6359350681305,None,1,1.0439679622650146,360.6359350681305,None,361.7947361469269,None,362.8065640926361,363.15917205810547,362.8065640926361,363.15917205810547,361.7947361469269,None,361.7947361469269,None,361.7947361469269,None,-1,-1,1,3,629.4336318969727,674.7860908508301,right,364.9867911338806,None,alice_pilot,icub,clamp,2021_Dec_17_1408,exp,2021.2.3,60.14097835999381,
right,go,0,0,0,0,8,4,52,3,365.5158941745758,None,1,1.0107388496398926,365.5158941745758,None,366.61148405075073,None,367.60918498039246,367.95341515541077,367.60918498039246,367.95341515541077,366.61148405075073,None,366.61148405075073,None,366.61148405075073,None,-1,-1,1,3,651.6873836517334,708.1775665283203,right,369.8839371204376,None,alice_pilot,icub,clamp,2021_Dec_17_1408,exp,2021.2.3,60.14097835999381,
left,go,0,0,0,0,8,5,53,0,370.39060616493225,None,1,0.9724149703979492,370.39060616493225,None,371.4864239692688,None,372.4841752052307,372.83944296836853,372.4841752052307,372.83944296836853,371.4864239692688,None,371.4864239692688,None,371.4864239692688,None,-1,-1,1,3,663.5792255401611,878.0932426452637,left,374.9030170440674,None,alice_pilot,icub,clamp,2021_Dec_17_1408,exp,2021.2.3,60.14097835999381,
left,go,0,0,0,0,9,0,54,1,375.4199080467224,None,1,1.0633859634399414,375.4199080467224,None,376.5828001499176,None,377.57840514183044,377.92183113098145,377.57840514183044,377.92183113098145,376.5828001499176,None,376.5828001499176,None,376.5828001499176,None,-1,-1,1,3,776.5097618103027,828.0844688415527,left,380.0844421386719,None,alice_pilot,icub,clamp,2021_Dec_17_1408,exp,2021.2.3,60.14097835999381,
left,stop,0,0,0,0,9,1,55,2,380.61123919487,None,1,1.0147290229797363,380.61123919487,None,381.7115271091461,None,382.72021317481995,383.0784511566162,382.72021317481995,383.0784511566162,381.7115271091461,None,381.7115271091461,None,381.7115271091461,None,850,800,0,3,786.6640090942383,830.4946422576904,left,385.2316691875458,None,alice_pilot,icub,clamp,2021_Dec_17_1408,exp,2021.2.3,60.14097835999381,
right,go,0,0,0,0,9,2,56,4,385.76239705085754,None,1,3.208505153656006,385.76239705085754,None,389.0817470550537,None,390.07361817359924,390.4363989830017,390.07361817359924,390.4363989830017,389.0817470550537,None,389.0817470550537,None,389.0817470550537,None,-1,-1,1,3,439.1672611236572,910.9997749328613,right,392.3079161643982,None,alice_pilot,icub,clamp,2021_Dec_17_1408,exp,2021.2.3,60.14097835999381,
right,stop,0,0,0,0,9,3,57,5,392.82527709007263,None,1,1.204944133758545,392.82527709007263,None,394.1107680797577,None,395.13841009140015,395.50367617607117,395.13841009140015,395.50367617607117,394.1107680797577,None,394.1107680797577,None,394.1107680797577,None,800,800,0,3,921.6289520263672,763.5118961334229,right,397.6824150085449,None,alice_pilot,icub,clamp,2021_Dec_17_1408,exp,2021.2.3,60.14097835999381,
right,go,0,0,0,0,9,4,58,3,398.20324897766113,None,1,2.630579948425293,398.20324897766113,None,400.90952610969543,None,401.93869519233704,402.2671341896057,401.93869519233704,402.2671341896057,400.90952610969543,None,400.90952610969543,None,400.90952610969543,None,-1,-1,1,3,384.9301338195801,999.6740818023682,right,404.18732714653015,None,alice_pilot,icub,clamp,2021_Dec_17_1408,exp,2021.2.3,60.14097835999381,
left,go,0,0,0,0,9,5,59,1,404.7148690223694,None,1,1.1509270668029785,404.7148690223694,None,405.99324202537537,None,407.0131080150604,407.37972807884216,407.0131080150604,407.37972807884216,405.99324202537537,None,405.99324202537537,None,405.99324202537537,None,-1,-1,1,3,526.6923904418945,956.2528133392334,left,409.3704261779785,None,alice_pilot,icub,clamp,2021_Dec_17_1408,exp,2021.2.3,60.14097835999381,
left,go,0,0,0,0,10,0,60,1,409.90162897109985,None,1,0.8154129981994629,409.90162897109985,None,410.8178291320801,None,411.8223261833191,412.16138911247253,411.8223261833191,412.16138911247253,410.8178291320801,None,410.8178291320801,None,410.8178291320801,None,-1,-1,1,3,570.7509517669678,858.1891059875488,left,414.1503791809082,None,alice_pilot,icub,clamp,2021_Dec_17_1408,exp,2021.2.3,60.14097835999381,
right,go,0,0,0,0,10,1,61,4,414.66998505592346,None,1,0.9402658939361572,414.66998505592346,None,415.7056829929352,None,416.70875000953674,417.0495719909668,416.70875000953674,417.0495719909668,415.7056829929352,None,415.7056829929352,None,415.7056829929352,None,-1,-1,1,3,578.7153244018555,841.4175510406494,right,419.00078105926514,None,alice_pilot,icub,clamp,2021_Dec_17_1408,exp,2021.2.3,60.14097835999381,
left,go,0,0,0,0,10,2,62,1,419.51094913482666,None,1,0.8068008422851562,419.51094913482666,None,420.42203998565674,None,421.44422912597656,421.7994740009308,421.44422912597656,421.7994740009308,420.42203998565674,None,420.42203998565674,None,420.42203998565674,None,-1,-1,1,3,707.8971862792969,663.3799076080322,left,423.6990370750427,None,alice_pilot,icub,clamp,2021_Dec_17_1408,exp,2021.2.3,60.14097835999381,
right,go,0,0,0,0,10,3,63,3,424.20948004722595,None,1,0.8807032108306885,424.20948004722595,None,425.1823010444641,None,426.19153809547424,426.55327916145325,426.19153809547424,426.55327916145325,425.1823010444641,None,425.1823010444641,None,425.1823010444641,None,-1,-1,1,3,483.3493232727051,736.884355545044,right,428.29870104789734,None,alice_pilot,icub,clamp,2021_Dec_17_1408,exp,2021.2.3,60.14097835999381,
left,go,0,0,0,0,10,4,64,1,428.8072371482849,None,1,0.6114480495452881,428.8072371482849,None,429.53391098976135,None,430.5575580596924,430.90559697151184,430.5575580596924,430.90559697151184,429.53391098976135,None,429.53391098976135,None,429.53391098976135,None,-1,-1,1,3,543.8685417175293,857.2587966918945,left,432.8209660053253,None,alice_pilot,icub,clamp,2021_Dec_17_1408,exp,2021.2.3,60.14097835999381,
right,stop,0,0,0,0,10,5,65,5,433.339684009552,None,1,0.5313689708709717,433.339684009552,None,433.99902606010437,None,435.01170897483826,435.36040711402893,435.01170897483826,435.36040711402893,433.99902606010437,None,433.99902606010437,None,433.99902606010437,None,800,750,0,3,423.95710945129395,745.6064224243164,right,437.0584890842438,None,alice_pilot,icub,clamp,2021_Dec_17_1408,exp,2021.2.3,60.14097835999381,
right,go,0,0,0,0,11,0,66,4,437.5647430419922,None,1,1.5501508712768555,437.5647430419922,None,439.2216260433197,None,440.25427317619324,440.61881017684937,440.25427317619324,440.61881017684937,439.2216260433197,None,439.2216260433197,None,439.2216260433197,None,-1,-1,1,3,811.5599155426025,1198.3134746551514,right,443.12118911743164,None,alice_pilot,icub,clamp,2021_Dec_17_1408,exp,2021.2.3,60.14097835999381,
left,stop,0,0,0,0,11,1,67,2,443.61785411834717,None,1,0.6542551517486572,443.61785411834717,None,444.4053041934967,None,445.4164249897003,445.77078008651733,445.4164249897003,445.77078008651733,444.4053041934967,None,444.4053041934967,None,444.4053041934967,None,800,700,1,3,634.3817710876465,-1.0,-1,449.91517901420593,None,alice_pilot,icub,clamp,2021_Dec_17_1408,exp,2021.2.3,60.14097835999381,
right,go,0,0,0,0,11,2,68,4,450.44618916511536,None,1,0.8720090389251709,450.44618916511536,None,451.42864418029785,None,452.40381598472595,452.755900144577,452.40381598472595,452.755900144577,451.42864418029785,None,451.42864418029785,None,451.42864418029785,None,-1,-1,1,3,633.5172653198242,1376.3551712036133,right,455.3281891345978,None,alice_pilot,icub,clamp,2021_Dec_17_1408,exp,2021.2.3,60.14097835999381,
left,go,0,0,0,0,11,3,69,0,455.84455013275146,None,1,1.5602121353149414,455.84455013275146,None,457.49562311172485,None,458.5272710323334,458.8782000541687,458.5272710323334,458.8782000541687,457.49562311172485,None,457.49562311172485,None,457.49562311172485,None,-1,-1,1,3,634.265661239624,1345.5455303192139,left,461.38504910469055,None,alice_pilot,icub,clamp,2021_Dec_17_1408,exp,2021.2.3,60.14097835999381,
right,stop,0,0,0,0,11,4,70,5,461.9044301509857,None,1,1.0222580432891846,461.9044301509857,None,463.05507612228394,None,464.0561661720276,464.42018818855286,464.0561661720276,464.42018818855286,463.05507612228394,None,463.05507612228394,None,463.05507612228394,None,850,700,1,3,648.2858657836914,-1.0,-1,468.59336709976196,None,alice_pilot,icub,clamp,2021_Dec_17_1408,exp,2021.2.3,60.14097835999381,
left,go,0,0,0,0,11,5,71,0,469.12419414520264,None,1,0.7109251022338867,469.12419414520264,None,469.9218029975891,None,470.9013731479645,471.2612121105194,470.9013731479645,471.2612121105194,469.9218029975891,None,469.9218029975891,None,469.9218029975891,None,-1,-1,1,3,879.7755241394043,1070.0151920318604,left,473.7662661075592,None,alice_pilot,icub,clamp,2021_Dec_17_1408,exp,2021.2.3,60.14097835999381,
left,go,0,0,0,0,12,0,72,1,474.2859151363373,None,1,1.675806999206543,474.2859151363373,None,476.06851410865784,None,477.0799300670624,477.44167613983154,477.0799300670624,477.44167613983154,476.06851410865784,None,476.06851410865784,None,476.06851410865784,None,-1,-1,1,3,507.3568820953369,1029.3238162994385,left,479.5078589916229,None,alice_pilot,icub,clamp,2021_Dec_17_1408,exp,2021.2.3,60.14097835999381,
right,stop,0,0,0,0,12,1,73,5,480.0178530216217,None,1,1.1796598434448242,480.0178530216217,None,481.30147409439087,None,482.3281960487366,482.69016909599304,482.3281960487366,482.69016909599304,481.30147409439087,None,481.30147409439087,None,481.30147409439087,None,850,750,1,3,763.1521224975586,-1.0,-1,486.9445970058441,None,alice_pilot,icub,clamp,2021_Dec_17_1408,exp,2021.2.3,60.14097835999381,
right,go,0,0,0,0,12,2,74,3,487.4754180908203,None,1,0.8777751922607422,487.4754180908203,None,488.45676612854004,None,489.45848298072815,489.828045129776,489.45848298072815,489.828045129776,488.45676612854004,None,488.45676612854004,None,488.45676612854004,None,-1,-1,1,3,798.6454963684082,1257.646083831787,right,492.41414403915405,None,alice_pilot,icub,clamp,2021_Dec_17_1408,exp,2021.2.3,60.14097835999381,
right,go,0,0,0,0,12,3,75,3,492.92205715179443,None,1,0.9458799362182617,492.92205715179443,None,493.95847606658936,None,494.9693560600281,495.33874797821045,494.9693560600281,495.33874797821045,493.95847606658936,None,493.95847606658936,None,493.95847606658936,None,-1,-1,1,3,756.4992904663086,964.2536640167236,right,497.54933309555054,None,alice_pilot,icub,clamp,2021_Dec_17_1408,exp,2021.2.3,60.14097835999381,
right,stop,0,0,0,0,12,4,76,5,498.0687370300293,None,1,0.6937160491943359,498.0687370300293,None,498.85696601867676,None,499.8629050254822,500.2265841960907,499.8629050254822,500.2265841960907,498.85696601867676,None,498.85696601867676,None,498.85696601867676,None,850,800,1,3,786.9725227355957,-1.0,-1,504.5332131385803,None,alice_pilot,icub,clamp,2021_Dec_17_1408,exp,2021.2.3,60.14097835999381,
right,go,0,0,0,0,12,5,77,4,505.06313705444336,None,1,0.4369039535522461,505.06313705444336,None,505.61241006851196,None,506.5963501930237,506.94873118400574,506.5963501930237,506.94873118400574,505.61241006851196,None,505.61241006851196,None,505.61241006851196,None,-1,-1,1,3,740.3113842010498,1137.7782821655273,right,509.37101697921753,None,alice_pilot,icub,clamp,2021_Dec_17_1408,exp,2021.2.3,60.14097835999381,
left,go,1,0,1,0,0,0,0,1,523.3220500946045,None,1,5.038434982299805,523.3220500946045,None,528.4818429946899,None,529.5114121437073,529.8696901798248,529.5114121437073,529.8696901798248,528.4818429946899,None,528.4818429946899,None,528.4818429946899,None,-1,-1,1,3,380.13505935668945,575.7498741149902,left,531.3119280338287,None,alice_pilot,icub,clamp,2021_Dec_17_1408,exp,2021.2.3,60.14097835999381,
right,go,1,0,1,0,0,1,1,4,531.820897102356,None,1,2.723701000213623,531.820897102356,None,534.6506650447845,None,535.6753640174866,536.0281541347504,535.6753640174866,536.0281541347504,534.6506650447845,None,534.6506650447845,None,534.6506650447845,None,-1,-1,1,3,486.3772392272949,536.4639759063721,right,537.5787332057953,None,alice_pilot,icub,clamp,2021_Dec_17_1408,exp,2021.2.3,60.14097835999381,
right,go,1,0,1,0,0,2,2,4,538.0977911949158,None,1,2.58728289604187,538.0977911949158,None,540.8009071350098,None,541.8038489818573,542.1639029979706,541.8038489818573,542.1639029979706,540.8009071350098,None,540.8009071350098,None,540.8009071350098,None,-1,-1,1,3,498.90708923339844,512.8297805786133,right,543.7047100067139,None,alice_pilot,icub,clamp,2021_Dec_17_1408,exp,2021.2.3,60.14097835999381,
right,stop,1,0,1,0,0,3,3,5,544.2394480705261,None,1,0.612943172454834,544.2394480705261,None,544.9631731510162,None,545.9607200622559,546.2886860370636,545.9607200622559,546.2886860370636,544.9631731510162,None,544.9631731510162,None,544.9631731510162,None,850,850,0,3,462.0659351348877,640.7170295715332,right,547.9649891853333,None,alice_pilot,icub,clamp,2021_Dec_17_1408,exp,2021.2.3,60.14097835999381,
left,stop,1,0,1,0,0,4,4,2,548.4641790390015,None,1,3.4811720848083496,548.4641790390015,None,552.025829076767,None,553.0454452037811,553.4022650718689,553.0454452037811,553.4022650718689,552.025829076767,None,552.025829076767,None,552.025829076767,None,850,800,0,3,647.7224826812744,786.5774631500244,left,555.3580989837646,None,alice_pilot,icub,clamp,2021_Dec_17_1408,exp,2021.2.3,60.14097835999381,
right,go,1,0,1,0,0,5,5,4,555.8591501712799,None,1,3.860651969909668,555.8591501712799,None,559.8052380084991,None,560.8069660663605,561.1686329841614,560.8069660663605,561.1686329841614,559.8052380084991,None,559.8052380084991,None,559.8052380084991,None,-1,-1,1,3,601.7897129058838,727.7734279632568,right,563.0332581996918,None,alice_pilot,icub,clamp,2021_Dec_17_1408,exp,2021.2.3,60.14097835999381,
right,go,1,0,1,0,1,0,6,4,563.5500071048737,None,1,0.8833119869232178,563.5500071048737,None,564.5240139961243,None,565.5194990634918,565.8743240833282,565.5194990634918,565.8743240833282,564.5240139961243,None,564.5240139961243,None,564.5240139961243,None,-1,-1,1,3,617.9172992706299,809.1855049133301,right,567.8332321643829,None,alice_pilot,icub,clamp,2021_Dec_17_1408,exp,2021.2.3,60.14097835999381,
left,stop,1,0,1,0,1,1,7,2,568.3520121574402,None,1,2.977180004119873,568.3520121574402,None,571.4251120090485,None,572.4351541996002,572.7769529819489,572.4351541996002,572.7769529819489,571.4251120090485,None,571.4251120090485,None,571.4251120090485,None,800,800,0,3,937.1249675750732,496.78778648376465,left,574.762216091156,None,alice_pilot,icub,clamp,2021_Dec_17_1408,exp,2021.2.3,60.14097835999381,
left,stop,1,0,1,0,1,2,8,2,575.2765212059021,None,1,1.868778944015503,575.2765212059021,None,577.2409791946411,None,578.2655620574951,578.607274055481,578.2655620574951,578.607274055481,577.2409791946411,None,577.2409791946411,None,577.2409791946411,None,750,800,0,3,692.0430660247803,614.8412227630615,left,580.441251039505,None,alice_pilot,icub,clamp,2021_Dec_17_1408,exp,2021.2.3,60.14097835999381,
left,go,1,0,1,0,1,3,9,1,580.9533071517944,None,1,3.755635976791382,580.9533071517944,None,584.8127641677856,None,585.8165822029114,586.1664760112762,585.8165822029114,586.1664760112762,584.8127641677856,None,584.8127641677856,None,584.8127641677856,None,-1,-1,1,3,781.6393375396729,579.864501953125,left,588.0815360546112,None,alice_pilot,icub,clamp,2021_Dec_17_1408,exp,2021.2.3,60.14097835999381,
right,go,1,0,1,0,1,4,10,4,588.5884861946106,None,1,1.0668020248413086,588.5884861946106,None,589.7507960796356,None,590.7635021209717,591.1069371700287,590.7635021209717,591.1069371700287,589.7507960796356,None,589.7507960796356,None,589.7507960796356,None,-1,-1,1,3,247.59507179260254,839.6456241607666,right,592.7224020957947,None,alice_pilot,icub,clamp,2021_Dec_17_1408,exp,2021.2.3,60.14097835999381,
right,stop,1,0,1,0,1,5,11,5,593.2266001701355,None,1,0.687467098236084,593.2266001701355,None,594.0151109695435,None,595.0309631824493,595.3805191516876,595.0309631824493,595.3805191516876,594.0151109695435,None,594.0151109695435,None,594.0151109695435,None,700,800,0,3,499.54867362976074,1017.2915458679199,right,597.4258451461792,None,alice_pilot,icub,clamp,2021_Dec_17_1408,exp,2021.2.3,60.14097835999381,
right,go,1,0,1,0,2,0,12,3,597.9422821998596,None,1,1.656722068786621,597.9422821998596,None,599.7227191925049,None,600.7274069786072,601.0882270336151,600.7274069786072,601.0882270336151,599.7227191925049,None,599.7227191925049,None,599.7227191925049,None,-1,-1,1,3,703.9158344268799,663.4178161621094,right,602.9809432029724,None,alice_pilot,icub,clamp,2021_Dec_17_1408,exp,2021.2.3,60.14097835999381,
left,stop,1,0,1,0,2,1,13,2,603.5048949718475,None,1,0.5972259044647217,603.5048949718475,None,604.2297420501709,None,605.2486062049866,605.613028049469,605.2486062049866,605.613028049469,604.2297420501709,None,604.2297420501709,None,604.2297420501709,None,700,750,0,3,549.1471290588379,784.5621109008789,left,607.4643959999084,None,alice_pilot,icub,clamp,2021_Dec_17_1408,exp,2021.2.3,60.14097835999381,
right,go,1,0,1,0,2,2,14,3,607.979602098465,None,1,1.6624879837036133,607.979602098465,None,609.7557151317596,None,610.7617859840393,611.1172881126404,610.7617859840393,611.1172881126404,609.7557151317596,None,609.7557151317596,None,609.7557151317596,None,,,0,3,3000.2543926239014,-1.0,-1,614.6426601409912,None,alice_pilot,icub,clamp,2021_Dec_17_1408,exp,2021.2.3,60.14097835999381,
left,go,1,0,1,0,2,3,15,1,615.1737630367279,None,1,2.639957904815674,615.1737630367279,None,617.9382209777832,None,618.9515380859375,619.3066511154175,618.9515380859375,619.3066511154175,617.9382209777832,None,617.9382209777832,None,617.9382209777832,None,-1,-1,1,3,725.7428169250488,652.130126953125,left,621.2155151367188,None,alice_pilot,icub,clamp,2021_Dec_17_1408,exp,2021.2.3,60.14097835999381,
left,go,1,0,1,0,2,4,16,0,621.7464501857758,None,1,0.9196138381958008,621.7464501857758,None,622.7859790325165,None,623.8126029968262,624.1537630558014,623.8126029968262,624.1537630558014,622.7859790325165,None,622.7859790325165,None,622.7859790325165,None,-1,-1,1,3,792.0947074890137,492.8469657897949,left,625.9671430587769,None,alice_pilot,icub,clamp,2021_Dec_17_1408,exp,2021.2.3,60.14097835999381,
right,stop,1,0,1,0,2,5,17,5,626.4687011241913,None,1,0.6571938991546631,626.4687011241913,None,627.2592091560364,None,628.2865121364594,628.6537699699402,628.2865121364594,628.6537699699402,627.2592091560364,None,627.2592091560364,None,627.2592091560364,None,650,750,0,3,531.2998294830322,518.2859897613525,right,630.197517156601,None,alice_pilot,icub,clamp,2021_Dec_17_1408,exp,2021.2.3,60.14097835999381,
right,go,1,0,1,0,3,0,18,3,630.715742111206,None,1,2.45109486579895,630.715742111206,None,633.2951881885529,None,634.2887949943542,634.648432970047,634.2887949943542,634.648432970047,633.2951881885529,None,633.2951881885529,None,633.2951881885529,None,-1,-1,1,3,729.243278503418,630.1114559173584,right,636.5287652015686,None,alice_pilot,icub,clamp,2021_Dec_17_1408,exp,2021.2.3,60.14097835999381,
left,stop,1,0,1,0,3,1,19,2,637.0454051494598,None,1,2.079564094543457,637.0454051494598,None,639.2478270530701,None,640.2795140743256,640.6285560131073,640.2795140743256,640.6285560131073,639.2478270530701,None,639.2478270530701,None,639.2478270530701,None,650,700,0,3,637.4943256378174,494.71306800842285,left,642.2935950756073,None,alice_pilot,icub,clamp,2021_Dec_17_1408,exp,2021.2.3,60.14097835999381,
left,go,1,0,1,0,3,2,20,0,642.8082280158997,None,1,1.7746360301971436,642.8082280158997,None,644.7060899734497,None,645.7300190925598,646.0823690891266,645.7300190925598,646.0823690891266,644.7060899734497,None,644.7060899734497,None,644.7060899734497,None,-1,-1,1,3,739.1889095306396,619.7364330291748,left,647.9767642021179,None,alice_pilot,icub,clamp,2021_Dec_17_1408,exp,2021.2.3,60.14097835999381,
right,stop,1,0,1,0,3,3,21,5,648.4923939704895,None,1,0.750471830368042,648.4923939704895,None,649.3427879810333,None,650.3482871055603,650.6977090835571,650.3482871055603,650.6977090835571,649.3427879810333,None,649.3427879810333,None,649.3427879810333,None,600,700,0,3,835.2584838867188,436.37967109680176,right,652.4947052001953,None,alice_pilot,icub,clamp,2021_Dec_17_1408,exp,2021.2.3,60.14097835999381,
left,go,1,0,1,0,3,4,22,1,653.0109510421753,None,1,3.4007370471954346,653.0109510421753,None,656.5184180736542,None,657.513514995575,657.8652920722961,657.513514995575,657.8652920722961,656.5184180736542,None,656.5184180736542,None,656.5184180736542,None,-1,-1,1,3,614.677906036377,465.7633304595947,left,659.5027639865875,None,alice_pilot,icub,clamp,2021_Dec_17_1408,exp,2021.2.3,60.14097835999381,
right,go,1,0,1,0,3,5,23,4,660.0220561027527,None,1,0.7389531135559082,660.0220561027527,None,660.871454000473,None,661.8887000083923,662.2429749965668,661.8887000083923,662.2429749965668,660.871454000473,None,660.871454000473,None,660.871454000473,None,-1,-1,1,3,699.4256973266602,407.0117473602295,right,663.8745470046997,None,alice_pilot,icub,clamp,2021_Dec_17_1408,exp,2021.2.3,60.14097835999381,
right,go,1,0,1,0,4,0,24,3,664.3918890953064,None,1,0.6352798938751221,664.3918890953064,None,665.1180260181427,None,666.1282720565796,666.4963340759277,666.1282720565796,666.4963340759277,665.1180260181427,None,665.1180260181427,None,665.1180260181427,None,-1,-1,1,3,377.35891342163086,416.2464141845703,right,667.8206009864807,None,alice_pilot,icub,clamp,2021_Dec_17_1408,exp,2021.2.3,60.14097835999381,
right,go,1,0,1,0,4,1,25,4,668.3264741897583,None,1,0.8606040477752686,668.3264741897583,None,669.2996530532837,None,670.2970740795135,670.6358730792999,670.2970740795135,670.6358730792999,669.2996530532837,None,669.2996530532837,None,669.2996530532837,None,-1,-1,1,3,310.9891414642334,335.5414867401123,right,671.8302500247955,None,alice_pilot,icub,clamp,2021_Dec_17_1408,exp,2021.2.3,60.14097835999381,
left,go,1,0,1,0,4,2,26,0,672.3315441608429,None,1,0.5574390888214111,672.3315441608429,None,673.0005860328674,None,674.007865190506,674.3686871528625,674.007865190506,674.3686871528625,673.0005860328674,None,673.0005860328674,None,673.0005860328674,None,-1,-1,1,3,295.31049728393555,354.89439964294434,left,675.5493590831757,None,alice_pilot,icub,clamp,2021_Dec_17_1408,exp,2021.2.3,60.14097835999381,
right,go,1,0,1,0,4,3,27,3,676.0652320384979,None,1,0.23277902603149414,676.0652320384979,None,676.4212071895599,None,677.4208040237427,677.7656841278076,677.4208040237427,677.7656841278076,676.4212071895599,None,676.4212071895599,None,676.4212071895599,None,-1,-1,1,3,322.06177711486816,361.99140548706055,right,678.9774441719055,None,alice_pilot,icub,clamp,2021_Dec_17_1408,exp,2021.2.3,60.14097835999381,
left,stop,1,0,1,0,4,4,28,2,679.4840450286865,None,1,0.4219322204589844,679.4840450286865,None,680.0248601436615,None,681.0497860908508,681.4122409820557,681.0497860908508,681.4122409820557,680.0248601436615,None,680.0248601436615,None,680.0248601436615,None,600,650,0,3,407.3448181152344,466.522216796875,left,682.7766261100769,None,alice_pilot,icub,clamp,2021_Dec_17_1408,exp,2021.2.3,60.14097835999381,
right,go,1,0,1,0,4,5,29,3,683.2853109836578,None,1,2.709211826324463,683.2853109836578,None,686.1172761917114,None,687.1104099750519,687.4716441631317,687.1104099750519,687.4716441631317,686.1172761917114,None,686.1172761917114,None,686.1172761917114,None,-1,-1,1,3,345.1042175292969,373.9309310913086,right,688.7221720218658,None,alice_pilot,icub,clamp,2021_Dec_17_1408,exp,2021.2.3,60.14097835999381,
right,stop,1,0,1,0,5,0,30,5,689.2321591377258,None,1,0.19467401504516602,689.2321591377258,None,689.5279421806335,None,690.523736000061,690.8876791000366,690.523736000061,690.8876791000366,689.5279421806335,None,689.5279421806335,None,689.5279421806335,None,550,650,0,3,358.7079048156738,427.7830123901367,right,692.1962521076202,None,alice_pilot,icub,clamp,2021_Dec_17_1408,exp,2021.2.3,60.14097835999381,
left,go,1,0,1,0,5,1,31,0,692.7079281806946,None,1,1.5758519172668457,692.7079281806946,None,694.4176859855652,None,695.4216320514679,695.7745821475983,695.4216320514679,695.7745821475983,694.4176859855652,None,694.4176859855652,None,694.4176859855652,None,-1,-1,1,3,842.5912857055664,399.0049362182617,left,697.5473330020905,None,alice_pilot,icub,clamp,2021_Dec_17_1408,exp,2021.2.3,60.14097835999381,
left,go,1,0,1,0,5,2,32,0,698.0424551963806,None,1,0.31837987899780273,698.0424551963806,None,698.4616920948029,None,699.4971661567688,699.8535552024841,699.4971661567688,699.8535552024841,698.4616920948029,None,698.4616920948029,None,698.4616920948029,None,-1,-1,1,3,615.2784824371338,419.62289810180664,left,701.4074821472168,None,alice_pilot,icub,clamp,2021_Dec_17_1408,exp,2021.2.3,60.14097835999381,
left,go,1,0,1,0,5,3,33,1,701.9366071224213,None,1,0.2014780044555664,701.9366071224213,None,702.2289800643921,None,703.2279260158539,703.5741901397705,703.2279260158539,703.5741901397705,702.2289800643921,None,702.2289800643921,None,702.2289800643921,None,-1,-1,1,3,353.3928394317627,459.14506912231445,left,704.9512760639191,None,alice_pilot,icub,clamp,2021_Dec_17_1408,exp,2021.2.3,60.14097835999381,
right,go,1,0,1,0,5,4,34,4,705.4563481807709,None,1,0.3654170036315918,705.4563481807709,None,705.9363031387329,None,706.94251704216,707.2844731807709,706.94251704216,707.2844731807709,705.9363031387329,None,705.9363031387329,None,705.9363031387329,None,-1,-1,1,3,373.3546733856201,381.4718723297119,right,708.5651841163635,None,alice_pilot,icub,clamp,2021_Dec_17_1408,exp,2021.2.3,60.14097835999381,
left,go,1,0,1,0,5,5,35,1,709.0757210254669,None,1,0.26395201683044434,709.0757210254669,None,709.435396194458,None,710.4397640228271,710.7694330215454,710.4397640228271,710.7694330215454,709.435396194458,None,709.435396194458,None,709.435396194458,None,-1,-1,1,3,283.9634418487549,437.35671043395996,left,712.0630180835724,None,alice_pilot,icub,clamp,2021_Dec_17_1408,exp,2021.2.3,60.14097835999381,
right,go,1,0,1,0,6,0,36,4,712.5716331005096,None,1,0.31823110580444336,712.5716331005096,None,712.990905046463,None,713.9871561527252,714.3306610584259,713.9871561527252,714.3306610584259,712.990905046463,None,712.990905046463,None,712.990905046463,None,-1,-1,1,3,328.477144241333,314.12291526794434,right,715.5436220169067,None,alice_pilot,icub,clamp,2021_Dec_17_1408,exp,2021.2.3,60.14097835999381,
right,stop,1,0,1,0,6,1,37,5,716.0769600868225,None,1,0.2846989631652832,716.0769600868225,None,716.4371180534363,None,717.4357721805573,717.7857689857483,717.4357721805573,717.7857689857483,716.4371180534363,None,716.4371180534363,None,716.4371180534363,None,550,600,0,3,290.5547618865967,365.2791976928711,right,718.9749760627747,None,alice_pilot,icub,clamp,2021_Dec_17_1408,exp,2021.2.3,60.14097835999381,
right,go,1,0,1,0,6,2,38,3,719.4926941394806,None,1,0.8620760440826416,719.4926941394806,None,720.4654231071472,None,721.4870510101318,721.8402559757233,721.4870510101318,721.8402559757233,720.4654231071472,None,720.4654231071472,None,720.4654231071472,None,-1,-1,1,3,462.4931812286377,371.1895942687988,right,723.2072501182556,None,alice_pilot,icub,clamp,2021_Dec_17_1408,exp,2021.2.3,60.14097835999381,
left,go,1,0,1,0,6,3,39,0,723.7045681476593,None,1,0.31291699409484863,723.7045681476593,None,724.1243500709534,None,725.1350471973419,725.4909501075745,725.1350471973419,725.4909501075745,724.1243500709534,None,724.1243500709534,None,724.1243500709534,None,-1,-1,1,3,764.4953727722168,398.9436626434326,left,727.1663429737091,None,alice_pilot,icub,clamp,2021_Dec_17_1408,exp,2021.2.3,60.14097835999381,
right,stop,1,0,1,0,6,4,40,5,727.6815230846405,None,1,0.2612941265106201,727.6815230846405,None,728.0383679866791,None,729.0434980392456,729.3719651699066,729.0434980392456,729.3719651699066,728.0383679866791,None,728.0383679866791,None,728.0383679866791,None,550,550,0,3,518.8705921173096,335.96277236938477,right,730.7857670783997,None,alice_pilot,icub,clamp,2021_Dec_17_1408,exp,2021.2.3,60.14097835999381,
right,go,1,0,1,0,6,5,41,3,731.3028931617737,None,1,0.5617239475250244,731.3028931617737,None,731.9714751243591,None,732.973582983017,733.3161280155182,732.973582983017,733.3161280155182,731.9714751243591,None,731.9714751243591,None,731.9714751243591,None,-1,-1,1,3,384.07230377197266,402.1594524383545,right,734.638102054596,None,alice_pilot,icub,clamp,2021_Dec_17_1408,exp,2021.2.3,60.14097835999381,
left,go,1,0,1,0,7,0,42,1,735.1572091579437,None,1,0.17227602005004883,735.1572091579437,None,735.4478750228882,None,736.4533891677856,736.814857006073,736.4533891677856,736.814857006073,735.4478750228882,None,735.4478750228882,None,735.4478750228882,None,-1,-1,1,3,380.3396224975586,385.94985008239746,left,738.1020410060883,None,alice_pilot,icub,clamp,2021_Dec_17_1408,exp,2021.2.3,60.14097835999381,
left,stop,1,0,1,0,7,1,43,2,738.6086051464081,None,1,0.23276591300964355,738.6086051464081,None,738.9645709991455,None,739.9908220767975,740.3536071777344,739.9908220767975,740.3536071777344,738.9645709991455,None,738.9645709991455,None,738.9645709991455,None,550,500,0,3,442.98434257507324,360.86487770080566,left,741.6456999778748,None,alice_pilot,icub,clamp,2021_Dec_17_1408,exp,2021.2.3,60.14097835999381,
left,go,1,0,1,0,7,2,44,0,742.1630101203918,None,1,0.40486907958984375,742.1630101203918,None,742.6810669898987,None,743.7156920433044,744.0493440628052,743.7156920433044,744.0493440628052,742.6810669898987,None,742.6810669898987,None,742.6810669898987,None,-1,-1,1,3,666.724681854248,399.3391990661621,left,745.6441190242767,None,alice_pilot,icub,clamp,2021_Dec_17_1408,exp,2021.2.3,60.14097835999381,
left,go,1,0,1,0,7,3,45,0,746.1597671508789,None,1,0.22446990013122559,746.1597671508789,None,746.4966859817505,None,747.4962320327759,747.8533790111542,747.4962320327759,747.8533790111542,746.4966859817505,None,746.4966859817505,None,746.4966859817505,None,-1,-1,1,3,342.0600891113281,373.3236789703369,left,749.1014730930328,None,alice_pilot,icub,clamp,2021_Dec_17_1408,exp,2021.2.3,60.14097835999381,
right,go,1,0,1,0,7,4,46,4,749.6291790008545,None,1,0.25664591789245605,749.6291790008545,None,749.9811980724335,None,750.9710221290588,751.31960105896,750.9710221290588,751.31960105896,749.9811980724335,None,749.9811980724335,None,749.9811980724335,None,-1,-1,1,3,193.27187538146973,339.92838859558105,right,752.3829970359802,None,alice_pilot,icub,clamp,2021_Dec_17_1408,exp,2021.2.3,60.14097835999381,
left,stop,1,0,1,0,7,5,47,2,752.9128181934357,None,1,0.20631885528564453,752.9128181934357,None,753.2099990844727,None,754.2187960147858,754.587895154953,754.2187960147858,754.587895154953,753.2099990844727,None,753.2099990844727,None,753.2099990844727,None,500,500,0,3,440.85240364074707,385.42985916137695,left,755.9089500904083,None,alice_pilot,icub,clamp,2021_Dec_17_1408,exp,2021.2.3,60.14097835999381,
right,go,1,0,1,0,8,0,48,4,756.4154222011566,None,1,0.9489278793334961,756.4154222011566,None,757.4501090049744,None,758.4675211906433,758.8132719993591,758.4675211906433,758.8132719993591,757.4501090049744,None,757.4501090049744,None,757.4501090049744,None,,,0,3,3000.664234161377,-1.0,-1,762.341390132904,None,alice_pilot,icub,clamp,2021_Dec_17_1408,exp,2021.2.3,60.14097835999381,
left,stop,1,0,1,0,8,1,49,2,762.8740470409393,None,1,1.777329921722412,762.8740470409393,None,764.7747430801392,None,765.78062915802,766.1396842002869,765.78062915802,766.1396842002869,764.7747430801392,None,764.7747430801392,None,764.7747430801392,None,450,500,0,3,482.2683334350586,399.09982681274414,left,767.5450131893158,None,alice_pilot,icub,clamp,2021_Dec_17_1408,exp,2021.2.3,60.14097835999381,
left,go,1,0,1,0,8,2,50,0,768.0810260772705,None,1,0.37548017501831055,768.0810260772705,None,768.5634441375732,None,769.5839321613312,769.9471650123596,769.5839321613312,769.9471650123596,768.5634441375732,None,768.5634441375732,None,768.5634441375732,None,-1,-1,1,3,885.1733207702637,342.9713249206543,left,771.6951351165771,None,alice_pilot,icub,clamp,2021_Dec_17_1408,exp,2021.2.3,60.14097835999381,
left,stop,1,0,1,0,8,3,51,2,772.229768037796,None,1,0.2928309440612793,772.229768037796,None,772.6472861766815,None,773.6636030673981,774.0102660655975,773.6636030673981,774.0102660655975,772.6472861766815,None,772.6472861766815,None,772.6472861766815,None,400,500,0,3,451.0021209716797,318.5997009277344,left,775.313942193985,None,alice_pilot,icub,clamp,2021_Dec_17_1408,exp,2021.2.3,60.14097835999381,
right,go,1,0,1,0,8,4,52,4,775.8454489707947,None,1,0.47615694999694824,775.8454489707947,None,776.4500851631165,None,777.4638211727142,777.812625169754,777.4638211727142,777.812625169754,776.4500851631165,None,776.4500851631165,None,776.4500851631165,None,-1,-1,1,3,778.5334587097168,290.5547618865967,right,779.418338060379,None,alice_pilot,icub,clamp,2021_Dec_17_1408,exp,2021.2.3,60.14097835999381,
left,stop,1,0,1,0,8,5,53,2,779.9325611591339,None,1,0.4171638488769531,779.9325611591339,None,780.4728410243988,None,781.4706070423126,781.8400411605835,781.4706070423126,781.8400411605835,780.4728410243988,None,780.4728410243988,None,780.4728410243988,None,350,500,0,3,538.567066192627,470.2768325805664,left,783.3883950710297,None,alice_pilot,icub,clamp,2021_Dec_17_1408,exp,2021.2.3,60.14097835999381,
right,go,1,0,1,0,9,0,54,3,783.904639005661,None,1,0.49953293800354004,783.904639005661,None,784.5324351787567,None,785.552973985672,785.9199721813202,785.552973985672,785.9199721813202,784.5324351787567,None,784.5324351787567,None,784.5324351787567,None,-1,-1,1,3,559.0345859527588,390.3183937072754,right,787.3631150722504,None,alice_pilot,icub,clamp,2021_Dec_17_1408,exp,2021.2.3,60.14097835999381,
left,go,1,0,1,0,9,1,55,0,787.8797171115875,None,1,0.3216738700866699,787.8797171115875,None,788.3029811382294,None,789.3000221252441,789.6565260887146,789.3000221252441,789.6565260887146,788.3029811382294,None,788.3029811382294,None,788.3029811382294,None,-1,-1,1,3,530.0650596618652,1694.6566104888916,left,792.4010510444641,None,alice_pilot,icub,clamp,2021_Dec_17_1408,exp,2021.2.3,60.14097835999381,
left,go,1,0,1,0,9,2,56,1,792.9113471508026,None,1,0.6356210708618164,792.9113471508026,None,793.6377301216125,None,794.6335031986237,794.9782221317291,794.6335031986237,794.9782221317291,793.6377301216125,None,793.6377301216125,None,793.6377301216125,None,-1,-1,1,3,602.4863719940186,358.08539390563965,left,796.4994330406189,None,alice_pilot,icub,clamp,2021_Dec_17_1408,exp,2021.2.3,60.14097835999381,
right,stop,1,0,1,0,9,3,57,5,797.0197072029114,None,1,0.24101591110229492,797.0197072029114,None,797.3765270709991,None,798.4014701843262,798.7495770454407,798.4014701843262,798.7495770454407,797.3765270709991,None,797.3765270709991,None,797.3765270709991,None,300,500,0,3,643.4459686279297,336.0764980316162,right,800.2643051147461,None,alice_pilot,icub,clamp,2021_Dec_17_1408,exp,2021.2.3,60.14097835999381,
right,stop,1,0,1,0,9,4,58,5,800.7648231983185,None,1,1.6826708316802979,800.7648231983185,None,802.5486481189728,None,803.5781140327454,803.9192321300507,803.5781140327454,803.9192321300507,802.5486481189728,None,802.5486481189728,None,802.5486481189728,None,300,450,0,3,691.0276412963867,395.21288871765137,right,805.5167582035065,None,alice_pilot,icub,clamp,2021_Dec_17_1408,exp,2021.2.3,60.14097835999381,
left,go,1,0,1,0,9,5,59,1,806.0480790138245,None,1,3.8724889755249023,806.0480790138245,None,810.0488290786743,None,811.0728540420532,811.4168040752411,811.0728540420532,811.4168040752411,810.0488290786743,None,810.0488290786743,None,810.0488290786743,None,-1,-1,1,3,514.6536827087402,382.83610343933105,left,812.8494560718536,None,alice_pilot,icub,clamp,2021_Dec_17_1408,exp,2021.2.3,60.14097835999381,
left,go,1,0,1,0,10,0,60,0,813.3754839897156,None,1,0.27594900131225586,813.3754839897156,None,813.7317290306091,None,814.7522950172424,815.1188170909882,814.7522950172424,815.1188170909882,813.7317290306091,None,813.7317290306091,None,813.7317290306091,None,-1,-1,1,3,491.9118881225586,339.0359878540039,left,816.4688889980316,None,alice_pilot,icub,clamp,2021_Dec_17_1408,exp,2021.2.3,60.14097835999381,
left,go,1,0,1,0,10,1,61,0,816.9861161708832,None,1,0.13898110389709473,816.9861161708832,None,817.2207541465759,None,818.2410380840302,818.5864720344543,818.2410380840302,818.5864720344543,817.2207541465759,None,817.2207541465759,None,817.2207541465759,None,-1,-1,1,3,445.90163230895996,361.32025718688965,left,819.9262700080872,None,alice_pilot,icub,clamp,2021_Dec_17_1408,exp,2021.2.3,60.14097835999381,
right,go,1,0,1,0,10,2,62,3,820.4587740898132,None,1,0.20861101150512695,820.4587740898132,None,820.7478070259094,None,821.7655889987946,822.111447095871,821.7655889987946,822.111447095871,820.7478070259094,None,820.7478070259094,None,820.7478070259094,None,-1,-1,1,3,322.2007751464844,317.63148307800293,right,823.2843101024628,None,alice_pilot,icub,clamp,2021_Dec_17_1408,exp,2021.2.3,60.14097835999381,
right,go,1,0,1,0,10,3,63,3,823.7879700660706,None,1,0.14888787269592285,823.7879700660706,None,824.0224239826202,None,825.0159471035004,825.3641791343689,825.0159471035004,825.3641791343689,824.0224239826202,None,824.0224239826202,None,824.0224239826202,None,-1,-1,1,3,588.2277488708496,323.81677627563477,right,826.8282430171967,None,alice_pilot,icub,clamp,2021_Dec_17_1408,exp,2021.2.3,60.14097835999381,
right,stop,1,0,1,0,10,4,64,5,827.3371260166168,None,1,0.2793309688568115,827.3371260166168,None,827.6968400478363,None,828.7107980251312,829.0667321681976,828.7107980251312,829.0667321681976,827.6968400478363,None,827.6968400478363,None,827.6968400478363,None,300,400,0,3,341.6619300842285,332.1387767791748,right,830.2660880088806,None,alice_pilot,icub,clamp,2021_Dec_17_1408,exp,2021.2.3,60.14097835999381,
left,go,1,0,1,0,10,5,65,1,830.778745174408,None,1,0.9031410217285156,830.778745174408,None,831.7577891349792,None,832.761066198349,833.129919052124,832.761066198349,833.129919052124,831.7577891349792,None,831.7577891349792,None,831.7577891349792,None,-1,-1,1,3,422.1048355102539,347.38922119140625,left,834.4232029914856,None,alice_pilot,icub,clamp,2021_Dec_17_1408,exp,2021.2.3,60.14097835999381,
left,go,1,0,1,0,11,0,66,0,834.9421000480652,None,1,0.1523292064666748,834.9421000480652,None,835.1749060153961,None,836.1906020641327,836.5412020683289,836.1906020641327,836.5412020683289,835.1749060153961,None,835.1749060153961,None,835.1749060153961,None,-1,-1,1,3,486.42826080322266,372.3170757293701,left,837.9090201854706,None,alice_pilot,icub,clamp,2021_Dec_17_1408,exp,2021.2.3,60.14097835999381,
right,stop,1,0,1,0,11,1,67,5,838.4457151889801,None,1,0.22789216041564941,838.4457151889801,None,838.8021810054779,None,839.8134760856628,840.1404349803925,839.8134760856628,840.1404349803925,838.8021810054779,None,838.8021810054779,None,838.8021810054779,None,300,350,0,3,617.9096698760986,301.6533851623535,right,841.5985531806946,None,alice_pilot,icub,clamp,2021_Dec_17_1408,exp,2021.2.3,60.14097835999381,
right,stop,1,0,1,0,11,2,68,5,842.1020941734314,None,1,0.37456607818603516,842.1020941734314,None,842.5851080417633,None,843.5864610671997,843.9449381828308,843.5864610671997,843.9449381828308,842.5851080417633,None,842.5851080417633,None,842.5851080417633,None,300,300,0,3,524.2195129394531,314.29362297058105,right,845.3065021038055,None,alice_pilot,icub,clamp,2021_Dec_17_1408,exp,2021.2.3,60.14097835999381,
left,go,1,0,1,0,11,3,69,1,845.8164021968842,None,1,0.34253382682800293,845.8164021968842,None,846.2344560623169,None,847.2293140888214,847.5821690559387,847.2293140888214,847.5821690559387,846.2344560623169,None,846.2344560623169,None,846.2344560623169,None,-1,-1,1,3,693.885326385498,319.64993476867676,left,849.1296811103821,None,alice_pilot,icub,clamp,2021_Dec_17_1408,exp,2021.2.3,60.14097835999381,
right,go,1,0,1,0,11,4,70,3,849.6466090679169,None,1,0.1819920539855957,849.6466090679169,None,849.9398891925812,None,850.9448630809784,851.2944581508636,850.9448630809784,851.2944581508636,849.9398891925812,None,849.9398891925812,None,849.9398891925812,None,-1,-1,1,3,386.08431816101074,346.4045524597168,right,852.5583770275116,None,alice_pilot,icub,clamp,2021_Dec_17_1408,exp,2021.2.3,60.14097835999381,
left,stop,1,0,1,0,11,5,71,2,853.0748090744019,None,1,0.2082531452178955,853.0748090744019,None,853.3686800003052,None,854.3777990341187,854.7295980453491,854.3777990341187,854.7295980453491,853.3686800003052,None,853.3686800003052,None,853.3686800003052,None,300,250,0,3,650.4151821136475,326.20692253112793,left,856.2411391735077,None,alice_pilot,icub,clamp,2021_Dec_17_1408,exp,2021.2.3,60.14097835999381,
right,go,1,0,1,0,12,0,72,3,856.739951133728,None,1,0.31750988960266113,856.739951133728,None,857.1578710079193,None,858.1570210456848,858.5212240219116,858.1570210456848,858.5212240219116,857.1578710079193,None,857.1578710079193,None,857.1578710079193,None,-1,-1,1,3,493.3030605316162,339.65158462524414,right,859.8850929737091,None,alice_pilot,icub,clamp,2021_Dec_17_1408,exp,2021.2.3,60.14097835999381,
left,go,1,0,1,0,12,1,73,1,860.3922071456909,None,1,0.29437708854675293,860.3922071456909,None,860.8093540668488,None,861.8271901607513,862.1765491962433,861.8271901607513,862.1765491962433,860.8093540668488,None,860.8093540668488,None,860.8093540668488,None,-1,-1,1,3,379.50897216796875,395.22552490234375,left,863.4873561859131,None,alice_pilot,icub,clamp,2021_Dec_17_1408,exp,2021.2.3,60.14097835999381,
right,stop,1,0,1,0,12,2,74,5,864.0223381519318,None,1,0.2199249267578125,864.0223381519318,None,864.3178060054779,None,865.3164710998535,865.6882591247559,865.3164710998535,865.6882591247559,864.3178060054779,None,864.3178060054779,None,864.3178060054779,None,250,250,0,3,393.33534240722656,374.39489364624023,right,866.9892439842224,None,alice_pilot,icub,clamp,2021_Dec_17_1408,exp,2021.2.3,60.14097835999381,
left,stop,1,0,1,0,12,3,75,2,867.4965991973877,None,1,1.4781579971313477,867.4965991973877,None,869.0890111923218,None,870.084527015686,870.4384369850159,870.084527015686,870.4384369850159,869.0890111923218,None,869.0890111923218,None,869.0890111923218,None,250,200,0,3,388.33141326904297,354.54702377319336,left,871.7406301498413,None,alice_pilot,icub,clamp,2021_Dec_17_1408,exp,2021.2.3,60.14097835999381,
left,go,1,0,1,0,12,4,76,1,872.2485120296478,None,1,0.8293468952178955,872.2485120296478,None,873.1633701324463,None,874.1857120990753,874.5559031963348,874.1857120990753,874.5559031963348,873.1633701324463,None,873.1633701324463,None,873.1633701324463,None,-1,-1,1,3,683.8119029998779,299.3133068084717,left,876.0367341041565,None,alice_pilot,icub,clamp,2021_Dec_17_1408,exp,2021.2.3,60.14097835999381,
right,go,1,0,1,0,12,5,77,4,876.5482411384583,None,1,0.3051259517669678,876.5482411384583,None,876.9646060466766,None,877.9955241680145,878.3514361381531,877.9955241680145,878.3514361381531,876.9646060466766,None,876.9646060466766,None,876.9646060466766,None,-1,-1,1,3,337.5692367553711,365.62132835388184,right,879.5748059749603,None,alice_pilot,icub,clamp,2021_Dec_17_1408,exp,2021.2.3,60.14097835999381,
left,go,2,0,2,0,0,0,0,0,962.355297088623,None,1,2.2592368125915527,962.355297088623,None,964.7385160923004,None,965.7637691497803,966.1142060756683,965.7637691497803,966.1142060756683,964.7385160923004,None,964.7385160923004,None,964.7385160923004,None,-1,-1,1,3,475.4176139831543,425.92453956604004,left,967.5450060367584,None,alice_pilot,icub,clamp,2021_Dec_17_1408,exp,2021.2.3,60.14097835999381,
right,go,2,0,2,0,0,1,1,4,968.06290102005,None,1,0.6912689208984375,968.06290102005,None,968.8563601970673,None,969.8872339725494,970.2377390861511,969.8872339725494,970.2377390861511,968.8563601970673,None,968.8563601970673,None,968.8563601970673,None,-1,-1,1,3,441.16902351379395,388.18359375,right,971.5966250896454,None,alice_pilot,icub,clamp,2021_Dec_17_1408,exp,2021.2.3,60.14097835999381,
left,stop,2,0,2,0,0,2,2,2,972.112419128418,None,1,3.2396631240844727,972.112419128418,None,975.437194108963,None,976.4591021537781,976.8166000843048,976.4591021537781,976.8166000843048,975.437194108963,None,975.437194108963,None,975.437194108963,None,200,200,0,3,467.4491882324219,392.69518852233887,left,978.2067260742188,None,alice_pilot,icub,clamp,2021_Dec_17_1408,exp,2021.2.3,60.14097835999381,
left,go,2,0,2,0,0,3,3,0,978.7243161201477,None,1,1.210913896560669,978.7243161201477,None,980.05823802948,None,981.0708720684052,981.396103143692,981.0708720684052,981.396103143692,980.05823802948,None,980.05823802948,None,980.05823802948,None,-1,-1,1,3,546.4732646942139,429.8362731933594,left,982.9340171813965,None,alice_pilot,icub,clamp,2021_Dec_17_1408,exp,2021.2.3,60.14097835999381,
left,go,2,0,2,0,0,4,4,0,983.4516620635986,None,1,0.5784189701080322,983.4516620635986,None,984.1528480052948,None,985.1760010719299,985.5184781551361,985.1760010719299,985.5184781551361,984.1528480052948,None,984.1528480052948,None,984.1528480052948,None,-1,-1,1,3,515.2685642242432,497.830867767334,left,987.0456371307373,None,alice_pilot,icub,clamp,2021_Dec_17_1408,exp,2021.2.3,60.14097835999381,
left,go,2,0,2,0,0,5,5,1,987.5481669902802,None,1,0.7952671051025391,987.5481669902802,None,988.4556481838226,None,989.4550831317902,989.7828831672668,989.4550831317902,989.7828831672668,988.4556481838226,None,988.4556481838226,None,988.4556481838226,None,-1,-1,1,3,555.2351474761963,450.0775337219238,left,991.3520610332489,None,alice_pilot,icub,clamp,2021_Dec_17_1408,exp,2021.2.3,60.14097835999381,
left,stop,2,0,2,0,1,0,6,2,991.8728601932526,None,1,0.7024600505828857,991.8728601932526,None,992.6610231399536,None,993.6931581497192,994.017412185669,993.6931581497192,994.017412185669,992.6610231399536,None,992.6610231399536,None,992.6610231399536,None,150,200,1,3,453.2208442687988,-1.0,-1,997.9970071315765,None,alice_pilot,icub,clamp,2021_Dec_17_1408,exp,2021.2.3,60.14097835999381,
left,stop,2,0,2,0,1,1,7,2,998.5290319919586,None,1,0.7518470287322998,998.5290319919586,None,999.3887012004852,None,1000.3665990829468,1000.6965761184692,1000.3665990829468,1000.6965761184692,999.3887012004852,None,999.3887012004852,None,999.3887012004852,None,200,200,1,3,642.3470973968506,-1.0,-1,1004.9133501052856,None,alice_pilot,icub,clamp,2021_Dec_17_1408,exp,2021.2.3,60.14097835999381,
left,go,2,0,2,0,1,2,8,1,1005.4449791908264,None,1,0.7248759269714355,1005.4449791908264,None,1006.3034460544586,None,1007.2867920398712,1007.6543290615082,1007.2867920398712,1007.6543290615082,1006.3034460544586,None,1006.3034460544586,None,1006.3034460544586,None,-1,-1,1,3,406.54468536376953,562.4327659606934,left,1009.154098033905,None,alice_pilot,icub,clamp,2021_Dec_17_1408,exp,2021.2.3,60.14097835999381,
right,go,2,0,2,0,1,3,9,3,1009.6672511100769,None,1,1.0774118900299072,1009.6672511100769,None,1010.8300850391388,None,1011.8616011142731,1012.2024910449982,1011.8616011142731,1012.2024910449982,1010.8300850391388,None,1010.8300850391388,None,1010.8300850391388,None,-1,-1,1,3,522.6829051971436,578.8331031799316,right,1013.8180000782013,None,alice_pilot,icub,clamp,2021_Dec_17_1408,exp,2021.2.3,60.14097835999381,
right,stop,2,0,2,0,1,4,10,5,1014.3311791419983,None,1,0.942237138748169,1014.3311791419983,None,1015.36891913414,None,1016.3604550361633,1016.7175211906433,1016.3604550361633,1016.7175211906433,1015.36891913414,None,1015.36891913414,None,1015.36891913414,None,250,200,1,3,611.515998840332,-1.0,-1,1020.8629541397095,None,alice_pilot,icub,clamp,2021_Dec_17_1408,exp,2021.2.3,60.14097835999381,
right,stop,2,0,2,0,1,5,11,5,1021.3944900035858,None,1,0.47138190269470215,1021.3944900035858,None,1021.9454090595245,None,1022.9286780357361,1023.2748980522156,1022.9286780357361,1023.2748980522156,1021.9454090595245,None,1021.9454090595245,None,1021.9454090595245,None,250,250,1,3,532.8719615936279,-1.0,-1,1027.370735168457,None,alice_pilot,icub,clamp,2021_Dec_17_1408,exp,2021.2.3,60.14097835999381,
right,go,2,0,2,0,2,0,12,4,1027.9020841121674,None,1,1.6577329635620117,1027.9020841121674,None,1029.6895611286163,None,1030.6918241977692,1031.0454411506653,1030.6918241977692,1031.0454411506653,1029.6895611286163,None,1029.6895611286163,None,1029.6895611286163,None,-1,-1,1,3,533.8590145111084,541.1605834960938,right,1032.6522250175476,None,alice_pilot,icub,clamp,2021_Dec_17_1408,exp,2021.2.3,60.14097835999381,
right,go,2,0,2,0,2,1,13,3,1033.1704721450806,None,1,1.397900104522705,1033.1704721450806,None,1034.6437439918518,None,1035.638171195984,1035.9855082035065,1035.638171195984,1035.9855082035065,1034.6437439918518,None,1034.6437439918518,None,1034.6437439918518,None,-1,-1,1,3,635.0977420806885,392.58480072021484,right,1037.5783421993256,None,alice_pilot,icub,clamp,2021_Dec_17_1408,exp,2021.2.3,60.14097835999381,
left,go,2,0,2,0,2,2,14,0,1038.1010081768036,None,1,1.3104779720306396,1038.1010081768036,None,1039.5128121376038,None,1040.5389029979706,1040.9003109931946,1040.5389029979706,1040.9003109931946,1039.5128121376038,None,1039.5128121376038,None,1039.5128121376038,None,-1,-1,1,3,505.4640769958496,511.1346244812012,left,1042.4051351547241,None,alice_pilot,icub,clamp,2021_Dec_17_1408,exp,2021.2.3,60.14097835999381,
left,go,2,0,2,0,2,3,15,0,1042.9041810035706,None,1,0.6882879734039307,1042.9041810035706,None,1043.6945221424103,None,1044.7105100154877,1045.0657231807709,1044.7105100154877,1045.0657231807709,1043.6945221424103,None,1043.6945221424103,None,1043.6945221424103,None,-1,-1,1,3,505.0530433654785,646.3315486907959,left,1046.7466070652008,None,alice_pilot,icub,clamp,2021_Dec_17_1408,exp,2021.2.3,60.14097835999381,
right,go,2,0,2,0,2,4,16,4,1047.2540321350098,None,1,0.9734551906585693,1047.2540321350098,None,1048.3519730567932,None,1049.3647701740265,1049.7345139980316,1049.3647701740265,1049.7345139980316,1048.3519730567932,None,1048.3519730567932,None,1048.3519730567932,None,-1,-1,1,3,533.7603092193604,471.5557098388672,right,1051.2529311180115,None,alice_pilot,icub,clamp,2021_Dec_17_1408,exp,2021.2.3,60.14097835999381,
left,go,2,0,2,0,2,5,17,1,1051.7689361572266,None,1,0.8625168800354004,1051.7689361572266,None,1052.7445440292358,None,1053.7391531467438,1054.0977311134338,1053.7391531467438,1054.0977311134338,1052.7445440292358,None,1052.7445440292358,None,1052.7445440292358,None,-1,-1,1,3,600.600004196167,450.3648281097412,left,1055.7010650634766,None,alice_pilot,icub,clamp,2021_Dec_17_1408,exp,2021.2.3,60.14097835999381,
left,stop,2,0,2,0,3,0,18,2,1056.2261531352997,None,1,0.5817930698394775,1056.2261531352997,None,1056.8923461437225,None,1057.9129240512848,1058.2512700557709,1057.9129240512848,1058.2512700557709,1056.8923461437225,None,1056.8923461437225,None,1056.8923461437225,None,250,300,0,3,446.8879699707031,432.4808120727539,left,1059.6637721061707,None,alice_pilot,icub,clamp,2021_Dec_17_1408,exp,2021.2.3,60.14097835999381,
right,go,2,0,2,0,3,1,19,3,1060.1706881523132,None,1,1.266916036605835,1060.1706881523132,None,1061.5231070518494,None,1062.53666305542,1062.8904922008514,1062.53666305542,1062.8904922008514,1061.5231070518494,None,1061.5231070518494,None,1061.5231070518494,None,-1,-1,1,3,469.33889389038086,510.61487197875977,right,1064.403869152069,None,alice_pilot,icub,clamp,2021_Dec_17_1408,exp,2021.2.3,60.14097835999381,
right,go,2,0,2,0,3,2,20,3,1064.918305158615,None,1,0.9662890434265137,1064.918305158615,None,1065.9601221084595,None,1066.9882969856262,1067.3457090854645,1066.9882969856262,1067.3457090854645,1065.9601221084595,None,1065.9601221084595,None,1065.9601221084595,None,-1,-1,1,3,593.724250793457,405.98297119140625,right,1068.8279039859772,None,alice_pilot,icub,clamp,2021_Dec_17_1408,exp,2021.2.3,60.14097835999381,
left,stop,2,0,2,0,3,3,21,2,1069.3397271633148,None,1,0.8495771884918213,1069.3397271633148,None,1070.3130140304565,None,1071.319444179535,1071.6822531223297,1071.319444179535,1071.6822531223297,1070.3130140304565,None,1070.3130140304565,None,1070.3130140304565,None,200,300,1,3,524.6603488922119,-1.0,-1,1075.7392811775208,None,alice_pilot,icub,clamp,2021_Dec_17_1408,exp,2021.2.3,60.14097835999381,
left,stop,2,0,2,0,3,4,22,2,1076.270182132721,None,1,0.08070802688598633,1076.270182132721,None,1076.4490671157837,None,1077.4325320720673,1077.7888271808624,1077.4325320720673,1077.7888271808624,1076.4490671157837,None,1076.4490671157837,None,1076.4490671157837,None,250,300,1,3,747.9417324066162,-1.0,-1,1082.0987811088562,None,alice_pilot,icub,clamp,2021_Dec_17_1408,exp,2021.2.3,60.14097835999381,
left,go,2,0,2,0,3,5,23,0,1082.6297080516815,None,1,0.5540189743041992,1082.6297080516815,None,1083.3043460845947,None,1084.2788870334625,1084.6398661136627,1084.2788870334625,1084.6398661136627,1083.3043460845947,None,1083.3043460845947,None,1083.3043460845947,None,-1,-1,1,3,694.0438747406006,571.5506076812744,left,1086.4681811332703,None,alice_pilot,icub,clamp,2021_Dec_17_1408,exp,2021.2.3,60.14097835999381,
right,go,2,0,2,0,4,0,24,4,1086.976704120636,None,1,0.8094320297241211,1086.976704120636,None,1087.8899850845337,None,1088.895889043808,1089.2552530765533,1088.895889043808,1089.2552530765533,1087.8899850845337,None,1087.8899850845337,None,1087.8899850845337,None,-1,-1,1,3,568.8576698303223,580.6212425231934,right,1090.9271371364594,None,alice_pilot,icub,clamp,2021_Dec_17_1408,exp,2021.2.3,60.14097835999381,
left,go,2,0,2,0,4,1,25,0,1091.4385170936584,None,1,0.9115378856658936,1091.4385170936584,None,1092.4737951755524,None,1093.478903055191,1093.8238780498505,1093.478903055191,1093.8238780498505,1092.4737951755524,None,1092.4737951755524,None,1092.4737951755524,None,-1,-1,1,3,724.5995998382568,499.42874908447266,left,1095.6024401187897,None,alice_pilot,icub,clamp,2021_Dec_17_1408,exp,2021.2.3,60.14097835999381,
left,stop,2,0,2,0,4,2,26,2,1096.1063079833984,None,1,0.5070788860321045,1096.1063079833984,None,1096.71484708786,None,1097.7087440490723,1098.0602359771729,1097.7087440490723,1098.0602359771729,1096.71484708786,None,1096.71484708786,None,1096.71484708786,None,300,300,1,3,595.1888561248779,-1.0,-1,1102.2203650474548,None,alice_pilot,icub,clamp,2021_Dec_17_1408,exp,2021.2.3,60.14097835999381,
left,go,2,0,2,0,4,3,27,0,1102.7511670589447,None,1,1.2706019878387451,1102.7511670589447,None,1104.1110060214996,None,1105.0869450569153,1105.4395370483398,1105.0869450569153,1105.4395370483398,1104.1110060214996,None,1104.1110060214996,None,1104.1110060214996,None,-1,-1,1,3,634.8135471343994,571.9246864318848,left,1107.2187840938568,None,alice_pilot,icub,clamp,2021_Dec_17_1408,exp,2021.2.3,60.14097835999381,
right,go,2,0,2,0,4,4,28,4,1107.7371389865875,None,1,0.8331139087677002,1107.7371389865875,None,1108.6507711410522,None,1109.677635192871,1110.0306601524353,1109.677635192871,1110.0306601524353,1108.6507711410522,None,1108.6507711410522,None,1108.6507711410522,None,-1,-1,1,3,730.9205532073975,496.75607681274414,right,1111.772229194641,None,alice_pilot,icub,clamp,2021_Dec_17_1408,exp,2021.2.3,60.14097835999381,
right,go,2,0,2,0,4,5,29,4,1112.2785639762878,None,1,0.8668928146362305,1112.2785639762878,None,1113.2567369937897,None,1114.2592430114746,1114.6171550750732,1114.2592430114746,1114.6171550750732,1113.2567369937897,None,1113.2567369937897,None,1113.2567369937897,None,-1,-1,1,3,555.891752243042,621.0250854492188,right,1116.3248760700226,None,alice_pilot,icub,clamp,2021_Dec_17_1408,exp,2021.2.3,60.14097835999381,
right,stop,2,0,2,0,5,0,30,5,1116.8315041065216,None,1,0.8810701370239258,1116.8315041065216,None,1117.7979021072388,None,1118.8242650032043,1119.1865901947021,1118.8242650032043,1119.1865901947021,1117.7979021072388,None,1117.7979021072388,None,1117.7979021072388,None,350,300,1,3,750.7293224334717,-1.0,-1,1123.4206039905548,None,alice_pilot,icub,clamp,2021_Dec_17_1408,exp,2021.2.3,60.14097835999381,
right,go,2,0,2,0,5,1,31,3,1123.9504890441895,None,1,1.1504101753234863,1123.9504890441895,None,1125.1810941696167,None,1126.167610168457,1126.5303661823273,1126.167610168457,1126.5303661823273,1125.1810941696167,None,1125.1810941696167,None,1125.1810941696167,None,-1,-1,1,3,739.6142482757568,504.8401355743408,right,1128.2978579998016,None,alice_pilot,icub,clamp,2021_Dec_17_1408,exp,2021.2.3,60.14097835999381,
left,go,2,0,2,0,5,2,32,1,1128.8337721824646,None,1,1.018455982208252,1128.8337721824646,None,1129.9326171875,None,1130.9351949691772,1131.2667610645294,1130.9351949691772,1131.2667610645294,1129.9326171875,None,1129.9326171875,None,1129.9326171875,None,-1,-1,1,3,549.2458343505859,572.1673965454102,left,1132.961846113205,None,alice_pilot,icub,clamp,2021_Dec_17_1408,exp,2021.2.3,60.14097835999381,
right,go,2,0,2,0,5,3,33,4,1133.4687700271606,None,1,0.6914010047912598,1133.4687700271606,None,1134.262498140335,None,1135.2812070846558,1135.6310431957245,1135.2812070846558,1135.6310431957245,1134.262498140335,None,1134.262498140335,None,1134.262498140335,None,-1,-1,1,3,728.5749912261963,467.79537200927734,right,1137.3512301445007,None,alice_pilot,icub,clamp,2021_Dec_17_1408,exp,2021.2.3,60.14097835999381,
right,go,2,0,2,0,5,4,34,3,1137.868996143341,None,1,0.733618974685669,1137.868996143341,None,1138.7227551937103,None,1139.7389070987701,1140.0598940849304,1139.7389070987701,1140.0598940849304,1138.7227551937103,None,1138.7227551937103,None,1138.7227551937103,None,-1,-1,1,3,538.7217998504639,469.1424369812012,right,1141.6299710273743,None,alice_pilot,icub,clamp,2021_Dec_17_1408,exp,2021.2.3,60.14097835999381,
right,go,2,0,2,0,5,5,35,4,1142.1433382034302,None,1,1.0737979412078857,1142.1433382034302,None,1143.3080520629883,None,1144.3008852005005,1144.6544060707092,1144.3008852005005,1144.6544060707092,1143.3080520629883,None,1143.3080520629883,None,1143.3080520629883,None,-1,-1,1,3,677.2117614746094,475.7049083709717,right,1146.339802980423,None,alice_pilot,icub,clamp,2021_Dec_17_1408,exp,2021.2.3,60.14097835999381,
left,go,2,0,2,0,6,0,36,0,1146.8405451774597,None,1,0.8574769496917725,1146.8405451774597,None,1147.8139531612396,None,1148.8128261566162,1149.165666103363,1148.8128261566162,1149.165666103363,1147.8139531612396,None,1147.8139531612396,None,1147.8139531612396,None,-1,-1,1,3,568.7711238861084,542.529821395874,left,1150.8336520195007,None,alice_pilot,icub,clamp,2021_Dec_17_1408,exp,2021.2.3,60.14097835999381,
left,stop,2,0,2,0,6,1,37,2,1151.3468880653381,None,1,1.2372939586639404,1151.3468880653381,None,1152.6900050640106,None,1153.714910030365,1154.0598351955414,1153.714910030365,1154.0598351955414,1152.6900050640106,None,1152.6900050640106,None,1152.6900050640106,None,350,350,0,3,535.4664325714111,525.1808166503906,left,1155.6476111412048,None,alice_pilot,icub,clamp,2021_Dec_17_1408,exp,2021.2.3,60.14097835999381,
right,go,2,0,2,0,6,2,38,4,1156.1750571727753,None,1,1.8650200366973877,1156.1750571727753,None,1158.1205291748047,None,1159.1227791309357,1159.4614679813385,1159.1227791309357,1159.4614679813385,1158.1205291748047,None,1158.1205291748047,None,1158.1205291748047,None,-1,-1,1,3,683.290958404541,444.23985481262207,right,1161.127429008484,None,alice_pilot,icub,clamp,2021_Dec_17_1408,exp,2021.2.3,60.14097835999381,
right,stop,2,0,2,0,6,3,39,5,1161.6307561397552,None,1,0.6786708831787109,1161.6307561397552,None,1162.420077085495,None,1163.4283311367035,1163.798089981079,1163.4283311367035,1163.798089981079,1162.420077085495,None,1162.420077085495,None,1162.420077085495,None,300,350,1,3,708.430290222168,-1.0,-1,1168.0394999980927,None,alice_pilot,icub,clamp,2021_Dec_17_1408,exp,2021.2.3,60.14097835999381,
left,go,2,0,2,0,6,4,40,1,1168.5717370510101,None,1,1.5028181076049805,1168.5717370510101,None,1170.1769921779633,None,1171.155522108078,1171.5050461292267,1171.155522108078,1171.5050461292267,1170.1769921779633,None,1170.1769921779633,None,1170.1769921779633,None,-1,-1,1,3,674.6470928192139,605.6661605834961,left,1173.357747077942,None,alice_pilot,icub,clamp,2021_Dec_17_1408,exp,2021.2.3,60.14097835999381,
right,go,2,0,2,0,6,5,41,3,1173.8751862049103,None,1,1.1050899028778076,1173.8751862049103,None,1175.0938460826874,None,1176.1173629760742,1176.4819490909576,1176.1173629760742,1176.4819490909576,1175.0938460826874,None,1175.0938460826874,None,1175.0938460826874,None,-1,-1,1,3,804.3923377990723,514.0342712402344,right,1178.3186271190643,None,alice_pilot,icub,clamp,2021_Dec_17_1408,exp,2021.2.3,60.14097835999381,
right,stop,2,0,2,0,7,0,42,5,1178.8306951522827,None,1,0.8177340030670166,1178.8306951522827,None,1179.744019985199,None,1180.7351081371307,1181.0772950649261,1180.7351081371307,1181.0772950649261,1179.744019985199,None,1179.744019985199,None,1179.744019985199,None,300,400,0,3,733.4294319152832,512.6914978027344,right,1182.8879029750824,None,alice_pilot,icub,clamp,2021_Dec_17_1408,exp,2021.2.3,60.14097835999381,
left,go,2,0,2,0,7,1,43,0,1183.4063081741333,None,1,1.7999048233032227,1183.4063081741333,None,1185.3119320869446,None,1186.310289144516,1186.6619482040405,1186.310289144516,1186.6619482040405,1185.3119320869446,None,1185.3119320869446,None,1185.3119320869446,None,-1,-1,1,3,757.9953670501709,637.2702121734619,left,1188.5948700904846,None,alice_pilot,icub,clamp,2021_Dec_17_1408,exp,2021.2.3,60.14097835999381,
left,go,2,0,2,0,7,2,44,1,1189.113643169403,None,1,1.1633920669555664,1189.113643169403,None,1190.3886251449585,None,1191.3815281391144,1191.7086880207062,1191.3815281391144,1191.7086880207062,1190.3886251449585,None,1190.3886251449585,None,1190.3886251449585,None,-1,-1,1,3,540.1310920715332,693.8681602478027,left,1193.5145189762115,None,alice_pilot,icub,clamp,2021_Dec_17_1408,exp,2021.2.3,60.14097835999381,
right,stop,2,0,2,0,7,3,45,5,1194.0340161323547,None,1,0.9268519878387451,1194.0340161323547,None,1195.071135044098,None,1196.1038491725922,1196.4274270534515,1196.1038491725922,1196.4274270534515,1195.071135044098,None,1195.071135044098,None,1195.071135044098,None,300,350,1,3,659.282922744751,-1.0,-1,1200.6156980991364,None,alice_pilot,icub,clamp,2021_Dec_17_1408,exp,2021.2.3,60.14097835999381,
left,stop,2,0,2,0,7,4,46,2,1201.1456651687622,None,1,1.0789470672607422,1201.1456651687622,None,1202.3150911331177,None,1203.327444076538,1203.665148973465,1203.327444076538,1203.665148973465,1202.3150911331177,None,1202.3150911331177,None,1202.3150911331177,None,300,400,1,3,889.2076015472412,-1.0,-1,1208.0763251781464,None,alice_pilot,icub,clamp,2021_Dec_17_1408,exp,2021.2.3,60.14097835999381,
right,stop,2,0,2,0,7,5,47,5,1208.606724023819,None,1,1.1378660202026367,1208.606724023819,None,1209.8370871543884,None,1210.8241391181946,1211.1728880405426,1210.8241391181946,1211.1728880405426,1209.8370871543884,None,1209.8370871543884,None,1209.8370871543884,None,350,400,1,3,588.2568359375,-1.0,-1,1215.2901730537415,None,alice_pilot,icub,clamp,2021_Dec_17_1408,exp,2021.2.3,60.14097835999381,
right,stop,2,0,2,0,8,0,48,5,1215.8212871551514,None,1,0.5512650012969971,1215.8212871551514,None,1216.4959650039673,None,1217.4823369979858,1217.8343210220337,1217.4823369979858,1217.8343210220337,1216.4959650039673,None,1216.4959650039673,None,1216.4959650039673,None,350,450,1,3,655.1568508148193,-1.0,-1,1222.046100139618,None,alice_pilot,icub,clamp,2021_Dec_17_1408,exp,2021.2.3,60.14097835999381,
right,go,2,0,2,0,8,1,49,4,1222.5783290863037,None,1,2.251371145248413,1222.5783290863037,None,1224.9201810359955,None,1225.8947250843048,1226.2416081428528,1225.8947250843048,1226.2416081428528,1224.9201810359955,None,1224.9201810359955,None,1224.9201810359955,None,-1,-1,1,3,546.1351871490479,727.2045612335205,right,1228.0817041397095,None,alice_pilot,icub,clamp,2021_Dec_17_1408,exp,2021.2.3,60.14097835999381,
right,stop,2,0,2,0,8,2,50,5,1228.594535112381,None,1,0.8924000263214111,1228.594535112381,None,1229.5672481060028,None,1230.561604976654,1230.9201500415802,1230.561604976654,1230.9201500415802,1229.5672481060028,None,1229.5672481060028,None,1229.5672481060028,None,350,500,0,3,709.9337577819824,599.7166633605957,right,1232.7628140449524,None,alice_pilot,icub,clamp,2021_Dec_17_1408,exp,2021.2.3,60.14097835999381,
right,go,2,0,2,0,8,3,51,4,1233.2777290344238,None,1,1.5017948150634766,1233.2777290344238,None,1234.870679140091,None,1235.8736171722412,1236.2342150211334,1235.8736171722412,1236.2342150211334,1234.870679140091,None,1234.870679140091,None,1234.870679140091,None,-1,-1,1,3,541.4412021636963,675.323486328125,right,1237.9737260341644,None,alice_pilot,icub,clamp,2021_Dec_17_1408,exp,2021.2.3,60.14097835999381,
left,go,2,0,2,0,8,4,52,1,1238.4809579849243,None,1,1.2344920635223389,1238.4809579849243,None,1239.8045539855957,None,1240.8049931526184,1241.132672071457,1240.8049931526184,1241.132672071457,1239.8045539855957,None,1239.8045539855957,None,1239.8045539855957,None,-1,-1,1,3,1161.5610122680664,608.1869602203369,left,1243.4784090518951,None,alice_pilot,icub,clamp,2021_Dec_17_1408,exp,2021.2.3,60.14097835999381,
left,go,2,0,2,0,8,5,53,1,1243.9795429706573,None,1,0.5803549289703369,1243.9795429706573,None,1244.6434471607208,None,1245.6659851074219,1246.0220701694489,1245.6659851074219,1246.0220701694489,1244.6434471607208,None,1244.6434471607208,None,1244.6434471607208,None,-1,-1,1,3,367.3226833343506,543.1385040283203,left,1247.447552204132,None,alice_pilot,icub,clamp,2021_Dec_17_1408,exp,2021.2.3,60.14097835999381,
right,go,2,0,2,0,9,0,54,3,1247.9670090675354,None,1,0.6949701309204102,1247.9670090675354,None,1248.757793188095,None,1249.776596069336,1250.13636302948,1249.776596069336,1250.13636302948,1248.757793188095,None,1248.757793188095,None,1248.757793188095,None,-1,-1,1,3,707.5448036193848,565.324068069458,right,1251.929880142212,None,alice_pilot,icub,clamp,2021_Dec_17_1408,exp,2021.2.3,60.14097835999381,
left,stop,2,0,2,0,9,1,55,2,1252.4587581157684,None,1,0.7944819927215576,1252.4587581157684,None,1253.3543100357056,None,1254.3583459854126,1254.7184460163116,1254.3583459854126,1254.7184460163116,1253.3543100357056,None,1253.3543100357056,None,1253.3543100357056,None,350,450,1,3,653.5789966583252,-1.0,-1,1258.8949501514435,None,alice_pilot,icub,clamp,2021_Dec_17_1408,exp,2021.2.3,60.14097835999381,
left,go,2,0,2,0,9,2,56,1,1259.4266061782837,None,1,0.8068249225616455,1259.4266061782837,None,1260.3489680290222,None,1261.3325610160828,1261.6888220310211,1261.3325610160828,1261.6888220310211,1260.3489680290222,None,1260.3489680290222,None,1260.3489680290222,None,-1,-1,1,3,718.8982963562012,524.3289470672607,left,1263.4655170440674,None,alice_pilot,icub,clamp,2021_Dec_17_1408,exp,2021.2.3,60.14097835999381,
right,go,2,0,2,0,9,3,57,4,1263.9691951274872,None,1,0.5928850173950195,1263.9691951274872,None,1264.63769197464,None,1265.6529541015625,1266.0074729919434,1265.6529541015625,1266.0074729919434,1264.63769197464,None,1264.63769197464,None,1264.63769197464,None,-1,-1,1,3,695.2228546142578,482.1798801422119,right,1267.7097461223602,None,alice_pilot,icub,clamp,2021_Dec_17_1408,exp,2021.2.3,60.14097835999381,
left,go,2,0,2,0,9,4,58,0,1268.2174639701843,None,1,0.4675929546356201,1268.2174639701843,None,1268.7604429721832,None,1269.7764301300049,1270.1230840682983,1269.7764301300049,1270.1230840682983,1268.7604429721832,None,1268.7604429721832,None,1268.7604429721832,None,-1,-1,1,3,563.2498264312744,574.5100975036621,left,1271.7892961502075,None,alice_pilot,icub,clamp,2021_Dec_17_1408,exp,2021.2.3,60.14097835999381,
left,go,2,0,2,0,9,5,59,1,1272.3101930618286,None,1,0.6797308921813965,1272.3101930618286,None,1273.1016299724579,None,1274.1042470932007,1274.4285950660706,1274.1042470932007,1274.4285950660706,1273.1016299724579,None,1273.1016299724579,None,1273.1016299724579,None,-1,-1,1,3,588.3314609527588,562.2670650482178,left,1276.1301259994507,None,alice_pilot,icub,clamp,2021_Dec_17_1408,exp,2021.2.3,60.14097835999381,
right,go,2,0,2,0,10,0,60,4,1276.6415050029755,None,1,0.7951438426971436,1276.6415050029755,None,1277.5544250011444,None,1278.5598180294037,1278.9188301563263,1278.5598180294037,1278.9188301563263,1277.5544250011444,None,1277.5544250011444,None,1277.5544250011444,None,-1,-1,1,3,625.1885890960693,573.9843845367432,right,1280.650752067566,None,alice_pilot,icub,clamp,2021_Dec_17_1408,exp,2021.2.3,60.14097835999381,
left,stop,2,0,2,0,10,1,61,2,1281.1614739894867,None,1,0.5716259479522705,1281.1614739894867,None,1281.828819990158,None,1282.854408979416,1283.2169151306152,1282.854408979416,1283.2169151306152,1281.828819990158,None,1281.828819990158,None,1281.828819990158,None,400,450,1,3,443.192720413208,-1.0,-1,1287.1535441875458,None,alice_pilot,icub,clamp,2021_Dec_17_1408,exp,2021.2.3,60.14097835999381,
left,go,2,0,2,0,10,2,62,1,1287.6855161190033,None,1,0.18993496894836426,1287.6855161190033,None,1287.9884121418,None,1288.9695479869843,1289.3092081546783,1288.9695479869843,1289.3092081546783,1287.9884121418,None,1287.9884121418,None,1287.9884121418,None,-1,-1,1,3,562.0021820068359,659.7447395324707,left,1291.096654176712,None,alice_pilot,icub,clamp,2021_Dec_17_1408,exp,2021.2.3,60.14097835999381,
right,go,2,0,2,0,10,3,63,3,1291.6307890415192,None,1,0.5662729740142822,1291.6307890415192,None,1292.2979941368103,None,1293.3293170928955,1293.6832489967346,1293.3293170928955,1293.6832489967346,1292.2979941368103,None,1292.2979941368103,None,1292.2979941368103,None,-1,-1,1,3,675.605058670044,619.4300651550293,right,1295.4687440395355,None,alice_pilot,icub,clamp,2021_Dec_17_1408,exp,2021.2.3,60.14097835999381,
right,go,2,0,2,0,10,4,64,3,1295.9852499961853,None,1,0.9457290172576904,1295.9852499961853,None,1297.0214490890503,None,1298.0290219783783,1298.384083032608,1298.0290219783783,1298.384083032608,1297.0214490890503,None,1297.0214490890503,None,1297.0214490890503,None,-1,-1,1,3,490.161657333374,618.6671257019043,right,1300.027036190033,None,alice_pilot,icub,clamp,2021_Dec_17_1408,exp,2021.2.3,60.14097835999381,
right,go,2,0,2,0,10,5,65,3,1300.5567491054535,None,1,0.5911080837249756,1300.5567491054535,None,1301.2233250141144,None,1302.2211270332336,1302.5745151042938,1302.2211270332336,1302.5745151042938,1301.2233250141144,None,1301.2233250141144,None,1301.2233250141144,None,-1,-1,1,3,741.8355941772461,609.515905380249,right,1304.4512131214142,None,alice_pilot,icub,clamp,2021_Dec_17_1408,exp,2021.2.3,60.14097835999381,
left,stop,2,0,2,0,11,0,66,2,1304.9772431850433,None,1,0.9088220596313477,1304.9772431850433,None,1306.009901046753,None,1307.020583152771,1307.3723220825195,1307.020583152771,1307.3723220825195,1306.009901046753,None,1306.009901046753,None,1306.009901046753,None,450,450,0,3,784.3222618103027,506.4513683319092,left,1309.1886141300201,None,alice_pilot,icub,clamp,2021_Dec_17_1408,exp,2021.2.3,60.14097835999381,
right,stop,2,0,2,0,11,1,67,5,1309.6879770755768,None,1,1.166869878768921,1309.6879770755768,None,1310.968628168106,None,1311.9951059818268,1312.3273680210114,1311.9951059818268,1312.3273680210114,1310.968628168106,None,1310.968628168106,None,1310.968628168106,None,400,450,0,3,910.1507663726807,584.2154026031494,right,1314.3425211906433,None,alice_pilot,icub,clamp,2021_Dec_17_1408,exp,2021.2.3,60.14097835999381,
right,stop,2,0,2,0,11,2,68,5,1314.8458230495453,None,1,2.7303311824798584,1314.8458230495453,None,1317.6770460605621,None,1318.6843070983887,1319.0320920944214,1318.6843070983887,1319.0320920944214,1317.6770460605621,None,1317.6770460605621,None,1317.6770460605621,None,400,400,1,3,548.1123924255371,-1.0,-1,1323.1079649925232,None,alice_pilot,icub,clamp,2021_Dec_17_1408,exp,2021.2.3,60.14097835999381,
right,go,2,0,2,0,11,3,69,3,1323.600485086441,None,1,0.8428401947021484,1323.600485086441,None,1324.5820860862732,None,1325.5655391216278,1325.9212629795074,1325.5655391216278,1325.9212629795074,1324.5820860862732,None,1324.5820860862732,None,1324.5820860862732,None,-1,-1,1,3,587.8291130065918,730.891227722168,right,1327.7962090969086,None,alice_pilot,icub,clamp,2021_Dec_17_1408,exp,2021.2.3,60.14097835999381,
left,go,2,0,2,0,11,4,70,0,1328.3125500679016,None,1,1.0415551662445068,1328.3125500679016,None,1329.4725811481476,None,1330.4977600574493,1330.8330121040344,1330.4977600574493,1330.8330121040344,1329.4725811481476,None,1329.4725811481476,None,1329.4725811481476,None,-1,-1,1,3,658.1919193267822,624.2260932922363,left,1332.6462500095367,None,alice_pilot,icub,clamp,2021_Dec_17_1408,exp,2021.2.3,60.14097835999381,
left,go,2,0,2,0,11,5,71,1,1333.166799068451,None,1,0.5982129573822021,1333.166799068451,None,1333.8938691616058,None,1334.9244420528412,1335.269245147705,1334.9244420528412,1335.269245147705,1333.8938691616058,None,1333.8938691616058,None,1333.8938691616058,None,-1,-1,1,3,568.1085586547852,418.76983642578125,left,1336.7856950759888,None,alice_pilot,icub,clamp,2021_Dec_17_1408,exp,2021.2.3,60.14097835999381,
left,go,2,0,2,0,12,0,72,1,1337.2976281642914,None,1,0.8162009716033936,1337.2976281642914,None,1338.2149951457977,None,1339.2216160297394,1339.5896611213684,1339.2216160297394,1339.5896611213684,1338.2149951457977,None,1338.2149951457977,None,1338.2149951457977,None,-1,-1,1,3,456.82215690612793,689.2962455749512,left,1341.2689311504364,None,alice_pilot,icub,clamp,2021_Dec_17_1408,exp,2021.2.3,60.14097835999381,
left,go,2,0,2,0,12,1,73,0,1341.7747781276703,None,1,1.2778339385986328,1341.7747781276703,None,1343.1685750484467,None,1344.1703569889069,1344.5283501148224,1344.1703569889069,1344.5283501148224,1343.1685750484467,None,1343.1685750484467,None,1343.1685750484467,None,-1,-1,1,3,573.8976001739502,548.2513904571533,left,1346.1823561191559,None,alice_pilot,icub,clamp,2021_Dec_17_1408,exp,2021.2.3,60.14097835999381,
right,go,2,0,2,0,12,2,74,3,1346.6896750926971,None,1,0.6691100597381592,1346.6896750926971,None,1347.4772510528564,None,1348.5054399967194,1348.8552160263062,1348.5054399967194,1348.8552160263062,1347.4772510528564,None,1347.4772510528564,None,1347.4772510528564,None,-1,-1,1,3,616.9164180755615,517.8978443145752,right,1350.5194439888,None,alice_pilot,icub,clamp,2021_Dec_17_1408,exp,2021.2.3,60.14097835999381,
left,stop,2,0,2,0,12,3,75,2,1351.0311810970306,None,1,0.4902341365814209,1351.0311810970306,None,1351.6322371959686,None,1352.6549220085144,1353.0156140327454,1352.6549220085144,1353.0156140327454,1351.6322371959686,None,1351.6322371959686,None,1351.6322371959686,None,400,450,1,3,700.9391784667969,-1.0,-1,1357.237419128418,None,alice_pilot,icub,clamp,2021_Dec_17_1408,exp,2021.2.3,60.14097835999381,
right,stop,2,0,2,0,12,4,76,5,1357.7703130245209,None,1,0.7570090293884277,1357.7703130245209,None,1358.6306450366974,None,1359.6170740127563,1359.9713530540466,1359.6170740127563,1359.9713530540466,1358.6306450366974,None,1358.6306450366974,None,1358.6306450366974,None,450,450,0,3,694.1661834716797,553.8158416748047,right,1361.7516531944275,None,alice_pilot,icub,clamp,2021_Dec_17_1408,exp,2021.2.3,60.14097835999381,
right,stop,2,0,2,0,12,5,77,5,1362.270178079605,None,1,2.6977241039276123,1362.270178079605,None,1365.0870921611786,None,1366.0941979885101,1366.4524731636047,1366.0941979885101,1366.4524731636047,1365.0870921611786,None,1365.0870921611786,None,1365.0870921611786,None,450,400,1,3,571.6533660888672,-1.0,-1,1370.5529100894928,None,alice_pilot,icub,clamp,2021_Dec_17_1408,exp,2021.2.3,60.14097835999381,
left,go,3,0,3,0,0,0,0,0,1393.539144039154,None,1,5.2245659828186035,1393.539144039154,None,1398.839359998703,None,1399.8572289943695,1400.2064740657806,1399.8572289943695,1400.2064740657806,1398.839359998703,None,1398.839359998703,None,1398.839359998703,None,-1,-1,1,3,502.87747383117676,553.131103515625,left,1401.791829109192,None,alice_pilot,icub,clamp,2021_Dec_17_1408,exp,2021.2.3,60.14097835999381,
left,go,3,0,3,0,0,1,1,1,1402.3160660266876,None,1,0.5935800075531006,1402.3160660266876,None,1402.9798591136932,None,1403.9765219688416,1404.3233830928802,1403.9765219688416,1404.3233830928802,1402.9798591136932,None,1402.9798591136932,None,1402.9798591136932,None,-1,-1,1,3,586.6303443908691,569.6103572845459,left,1406.0475401878357,None,alice_pilot,icub,clamp,2021_Dec_17_1408,exp,2021.2.3,60.14097835999381,
right,go,3,0,3,0,0,2,2,4,1406.5589520931244,None,1,0.9356141090393066,1406.5589520931244,None,1407.5967559814453,None,1408.625431060791,1408.9866080284119,1408.625431060791,1408.9866080284119,1407.5967559814453,None,1407.5967559814453,None,1407.5967559814453,None,-1,-1,1,3,797.2323894500732,403.52439880371094,right,1410.6769001483917,None,alice_pilot,icub,clamp,2021_Dec_17_1408,exp,2021.2.3,60.14097835999381,
right,go,3,0,3,0,0,3,3,4,1411.1829969882965,None,1,0.6239089965820312,1411.1829969882965,None,1411.9114961624146,None,1412.9270260334015,1413.2588040828705,1412.9270260334015,1413.2588040828705,1411.9114961624146,None,1411.9114961624146,None,1411.9114961624146,None,-1,-1,1,3,602.3445129394531,519.8910236358643,right,1414.943578004837,None,alice_pilot,icub,clamp,2021_Dec_17_1408,exp,2021.2.3,60.14097835999381,
left,go,3,0,3,0,0,4,4,1,1415.4612920284271,None,1,0.6602590084075928,1415.4612920284271,None,1416.249655008316,None,1417.243309020996,1417.6105489730835,1417.243309020996,1417.6105489730835,1416.249655008316,None,1416.249655008316,None,1416.249655008316,None,-1,-1,1,3,661.6940498352051,515.7408714294434,left,1419.309163093567,None,alice_pilot,icub,clamp,2021_Dec_17_1408,exp,2021.2.3,60.14097835999381,
left,go,3,0,3,0,0,5,5,0,1419.8298721313477,None,1,0.6187379360198975,1419.8298721313477,None,1420.5563461780548,None,1421.5700941085815,1421.9294340610504,1421.5700941085815,1421.9294340610504,1420.5563461780548,None,1420.5563461780548,None,1420.5563461780548,None,-1,-1,1,3,605.4553985595703,431.66208267211914,left,1423.4900751113892,None,alice_pilot,icub,clamp,2021_Dec_17_1408,exp,2021.2.3,60.14097835999381,
right,go,3,0,3,0,1,0,6,3,1424.009710073471,None,1,0.8039951324462891,1424.009710073471,None,1424.9248230457306,None,1425.9255051612854,1426.2802481651306,1425.9255051612854,1426.2802481651306,1424.9248230457306,None,1424.9248230457306,None,1424.9248230457306,None,-1,-1,1,3,557.4266910552979,607.7327728271484,right,1427.9771511554718,None,alice_pilot,icub,clamp,2021_Dec_17_1408,exp,2021.2.3,60.14097835999381,
left,stop,3,0,3,0,1,1,7,2,1428.5132110118866,None,1,0.6367568969726562,1428.5132110118866,None,1429.238970041275,None,1430.2307682037354,1430.5808911323547,1430.2307682037354,1430.5808911323547,1429.238970041275,None,1429.238970041275,None,1429.238970041275,None,450,450,0,3,389.80793952941895,460.30712127685547,left,1431.992611169815,None,alice_pilot,icub,clamp,2021_Dec_17_1408,exp,2021.2.3,60.14097835999381,
left,go,3,0,3,0,1,2,8,1,1432.492388010025,None,1,1.4779720306396484,1432.492388010025,None,1434.0853312015533,None,1435.1052680015564,1435.4706749916077,1435.1052680015564,1435.4706749916077,1434.0853312015533,None,1434.0853312015533,None,1434.0853312015533,None,-1,-1,1,3,600.5115509033203,618.5569763183594,left,1437.1803941726685,None,alice_pilot,icub,clamp,2021_Dec_17_1408,exp,2021.2.3,60.14097835999381,
left,go,3,0,3,0,1,3,9,0,1437.6788041591644,None,1,0.68892502784729,1437.6788041591644,None,1438.4682161808014,None,1439.4843080043793,1439.8414680957794,1439.4843080043793,1439.8414680957794,1438.4682161808014,None,1438.4682161808014,None,1438.4682161808014,None,-1,-1,1,3,621.3622093200684,664.921760559082,left,1441.6585631370544,None,alice_pilot,icub,clamp,2021_Dec_17_1408,exp,2021.2.3,60.14097835999381,
