Holder,Action,blocks.thisRepN,blocks.thisTrialN,blocks.thisN,blocks.thisIndex,trials.thisRepN,trials.thisTrialN,trials.thisN,trials.thisIndex,start_msg.started,start_msg.stopped,RespButton_start_trial.keys,RespButton_start_trial.rt,RespButton_start_trial.started,RespButton_start_trial.stopped,GREEN.started,GREEN.stopped,LEFT_RED.started,LEFT_RED.stopped,RIGHT_RED.started,RIGHT_RED.stopped,LEFT_CIRCLE.started,LEFT_CIRCLE.stopped,CENTER_CIRCLE.started,CENTER_CIRCLE.stopped,RIGHT_CIRCLE.started,RIGHT_CIRCLE.stopped,SOUND_DELAY_MS_LEFT,SOUND_DELAY_MS_RIGHT,CORRECT,VALIDITY,RELEASE_TIME,TOUCH_TIME,BOTTLE_RESPONSE_POSITION,text.started,text.stopped,pid,left_position,right_position,date,expName,psychopyVersion,frameRate,
right,stop,0,0,0,0,0,0,0,5,24.793159008026123,None,1,10.261369943618774,24.793159008026123,None,35.15646290779114,None,36.17455697059631,36.5214478969574,36.17455697059631,36.5214478969574,35.15646290779114,None,35.15646290779114,None,35.15646290779114,None,500,500,0,3,361.33384704589844,508.1038475036621,right,37.92208290100098,None,cecilia_pilot,icub,clamp,2021_Dec_17_1104,exp,2021.2.3,59.96677332372562,
right,go,0,0,0,0,0,1,1,4,38.43854999542236,None,1,1.042003870010376,38.43854999542236,None,39.599446058273315,None,40.593838930130005,40.9565589427948,40.593838930130005,40.9565589427948,39.599446058273315,None,39.599446058273315,None,39.599446058273315,None,-1,-1,1,3,214.62297439575195,581.1567306518555,right,42.288501024246216,None,cecilia_pilot,icub,clamp,2021_Dec_17_1104,exp,2021.2.3,59.96677332372562,
left,go,0,0,0,0,0,2,2,0,42.80799984931946,None,1,0.5354878902435303,42.80799984931946,None,43.472362995147705,None,44.495375871658325,44.850910902023315,44.495375871658325,44.850910902023315,43.472362995147705,None,43.472362995147705,None,43.472362995147705,None,-1,-1,1,3,233.67929458618164,508.32390785217285,left,46.124974966049194,None,cecilia_pilot,icub,clamp,2021_Dec_17_1104,exp,2021.2.3,59.96677332372562,
left,go,0,0,0,0,0,3,3,1,46.62914490699768,None,1,0.7094228267669678,46.62914490699768,None,47.419142961502075,None,48.4264919757843,48.7777259349823,48.4264919757843,48.7777259349823,47.419142961502075,None,47.419142961502075,None,47.419142961502075,None,-1,-1,1,3,333.1797122955322,504.1835308074951,left,50.14053797721863,None,cecilia_pilot,icub,clamp,2021_Dec_17_1104,exp,2021.2.3,59.96677332372562,
left,go,0,0,0,0,0,4,4,0,50.65513896942139,None,1,0.562035083770752,50.65513896942139,None,51.32389783859253,None,52.33620095252991,52.689903020858765,52.33620095252991,52.689903020858765,51.32389783859253,None,51.32389783859253,None,51.32389783859253,None,-1,-1,1,3,152.1611213684082,535.2973937988281,left,53.900104999542236,None,cecilia_pilot,icub,clamp,2021_Dec_17_1104,exp,2021.2.3,59.96677332372562,
right,go,0,0,0,0,0,5,5,4,54.4314980506897,None,1,0.5841059684753418,54.4314980506897,None,55.096226930618286,None,56.120847940444946,56.4475359916687,56.120847940444946,56.4475359916687,55.096226930618286,None,55.096226930618286,None,55.096226930618286,None,-1,-1,1,3,367.2780990600586,491.7631149291992,right,57.83604192733765,None,cecilia_pilot,icub,clamp,2021_Dec_17_1104,exp,2021.2.3,59.96677332372562,
left,go,0,0,0,0,1,0,6,0,58.34546184539795,None,1,0.5629971027374268,58.34546184539795,None,59.00844883918762,None,60.0046808719635,60.36476492881775,60.0046808719635,60.36476492881775,59.00844883918762,None,59.00844883918762,None,59.00844883918762,None,-1,-1,1,3,322.39460945129395,543.5330867767334,left,61.74681806564331,None,cecilia_pilot,icub,clamp,2021_Dec_17_1104,exp,2021.2.3,59.96677332372562,
left,go,0,0,0,0,1,1,7,1,62.254793882369995,None,1,0.4617130756378174,62.254793882369995,None,62.7970290184021,None,63.79893398284912,64.14992189407349,63.79893398284912,64.14992189407349,62.7970290184021,None,62.7970290184021,None,62.7970290184021,None,-1,-1,1,3,226.26137733459473,584.1834545135498,left,65.5189208984375,None,cecilia_pilot,icub,clamp,2021_Dec_17_1104,exp,2021.2.3,59.96677332372562,
right,go,0,0,0,0,1,2,8,3,66.03773999214172,None,1,0.5682199001312256,66.03773999214172,None,66.72338604927063,None,67.74768495559692,68.09292197227478,67.74768495559692,68.09292197227478,66.72338604927063,None,66.72338604927063,None,66.72338604927063,None,-1,-1,1,3,314.6646022796631,606.0798168182373,right,69.523432970047,None,cecilia_pilot,icub,clamp,2021_Dec_17_1104,exp,2021.2.3,59.96677332372562,
right,go,0,0,0,0,1,3,9,3,70.02315497398376,None,1,0.3531460762023926,70.02315497398376,None,70.50098299980164,None,71.5048520565033,71.86473488807678,71.5048520565033,71.86473488807678,70.50098299980164,None,70.50098299980164,None,70.50098299980164,None,-1,-1,1,3,283.1103801727295,551.652193069458,right,73.21879386901855,None,cecilia_pilot,icub,clamp,2021_Dec_17_1104,exp,2021.2.3,59.96677332372562,
left,go,0,0,0,0,1,4,10,1,73.72992300987244,None,1,0.4243428707122803,73.72992300987244,None,74.27301788330078,None,75.27585697174072,75.62601804733276,75.27585697174072,75.62601804733276,74.27301788330078,None,74.27301788330078,None,74.27301788330078,None,-1,-1,1,3,19.38343048095703,514.4660472869873,left,76.68139791488647,None,cecilia_pilot,icub,clamp,2021_Dec_17_1104,exp,2021.2.3,59.96677332372562,
right,go,0,0,0,0,1,5,11,4,77.21779298782349,None,1,0.42241597175598145,77.21779298782349,None,77.7582528591156,None,78.77012586593628,79.11755394935608,78.77012586593628,79.11755394935608,77.7582528591156,None,77.7582528591156,None,77.7582528591156,None,-1,-1,1,3,837.9244804382324,405.8971405029297,right,80.91375803947449,None,cecilia_pilot,icub,clamp,2021_Dec_17_1104,exp,2021.2.3,59.96677332372562,
right,go,0,0,0,0,2,0,12,4,81.44833898544312,None,1,0.393787145614624,81.44833898544312,None,81.92768692970276,None,82.94475603103638,83.29759287834167,82.94475603103638,83.29759287834167,81.92768692970276,None,81.92768692970276,None,81.92768692970276,None,-1,-1,1,3,476.4232635498047,467.2544002532959,right,84.75454497337341,None,cecilia_pilot,icub,clamp,2021_Dec_17_1104,exp,2021.2.3,59.96677332372562,
left,go,0,0,0,0,2,1,13,1,85.26866698265076,None,1,0.3687419891357422,85.26866698265076,None,85.7485249042511,None,86.76486206054688,87.10117602348328,86.76486206054688,87.10117602348328,85.7485249042511,None,85.7485249042511,None,85.7485249042511,None,-1,-1,1,3,209.32912826538086,495.10836601257324,left,88.35740184783936,None,cecilia_pilot,icub,clamp,2021_Dec_17_1104,exp,2021.2.3,59.96677332372562,
right,go,0,0,0,0,2,2,14,3,88.87223196029663,None,1,0.3788459300994873,88.87223196029663,None,89.3524980545044,None,90.3454270362854,90.7034559249878,90.3454270362854,90.7034559249878,89.3524980545044,None,89.3524980545044,None,89.3524980545044,None,-1,-1,1,3,238.27409744262695,466.88222885131836,right,91.93646597862244,None,cecilia_pilot,icub,clamp,2021_Dec_17_1104,exp,2021.2.3,59.96677332372562,
left,go,0,0,0,0,2,3,15,1,92.45157194137573,None,1,0.5375180244445801,92.45157194137573,None,93.11383199691772,None,94.11425304412842,94.46030187606812,94.11425304412842,94.46030187606812,93.11383199691772,None,93.11383199691772,None,93.11383199691772,None,-1,-1,1,3,182.97958374023438,457.2641849517822,left,95.66024684906006,None,cecilia_pilot,icub,clamp,2021_Dec_17_1104,exp,2021.2.3,59.96677332372562,
left,go,0,0,0,0,2,4,16,1,96.19619798660278,None,1,0.3343369960784912,96.19619798660278,None,96.61620497703552,None,97.64683699607849,98.0082778930664,97.64683699607849,98.0082778930664,96.61620497703552,None,96.61620497703552,None,96.61620497703552,None,,,0,3,-1.0,-1.0,-1,98.32360601425171,None,cecilia_pilot,icub,clamp,2021_Dec_17_1104,exp,2021.2.3,59.96677332372562,
left,stop,0,0,0,0,2,5,17,2,98.83798003196716,None,1,1.1658439636230469,98.83798003196716,None,100.12485098838806,None,101.10783386230469,101.47576093673706,101.10783386230469,101.47576093673706,100.12485098838806,None,100.12485098838806,None,100.12485098838806,None,500,450,0,3,473.86884689331055,509.75656509399414,left,103.00557804107666,None,cecilia_pilot,icub,clamp,2021_Dec_17_1104,exp,2021.2.3,59.96677332372562,
right,go,0,0,0,0,3,0,18,4,103.51581287384033,None,1,0.6282448768615723,103.51581287384033,None,104.244961977005,None,105.27338600158691,105.62940883636475,105.27338600158691,105.62940883636475,104.244961977005,None,104.244961977005,None,104.244961977005,None,-1,-1,1,3,428.16781997680664,402.7106761932373,right,106.97445106506348,None,cecilia_pilot,icub,clamp,2021_Dec_17_1104,exp,2021.2.3,59.96677332372562,
right,stop,0,0,0,0,3,1,19,5,107.47812294960022,None,1,0.35608601570129395,107.47812294960022,None,107.9584310054779,None,108.99094295501709,109.34562683105469,108.99094295501709,109.34562683105469,107.9584310054779,None,107.9584310054779,None,107.9584310054779,None,450,450,0,3,204.44488525390625,493.6068058013916,right,110.54182291030884,None,cecilia_pilot,icub,clamp,2021_Dec_17_1104,exp,2021.2.3,59.96677332372562,
left,go,0,0,0,0,3,2,20,0,111.04946899414062,None,1,0.689551830291748,111.04946899414062,None,111.84028100967407,None,112.85284090042114,113.18102598190308,112.85284090042114,113.18102598190308,111.84028100967407,None,111.84028100967407,None,111.84028100967407,None,-1,-1,1,3,83.68515968322754,444.5364475250244,left,114.28332304954529,None,cecilia_pilot,icub,clamp,2021_Dec_17_1104,exp,2021.2.3,59.96677332372562,
right,go,0,0,0,0,3,3,21,3,114.80538392066956,None,1,0.4719390869140625,114.80538392066956,None,115.38581490516663,None,116.38725304603577,116.74936604499817,116.38725304603577,116.74936604499817,115.38581490516663,None,115.38581490516663,None,115.38581490516663,None,,,0,3,-1.0,-1.0,-1,117.27136397361755,None,cecilia_pilot,icub,clamp,2021_Dec_17_1104,exp,2021.2.3,59.96677332372562,
right,stop,0,0,0,0,3,4,22,5,117.76726794242859,None,1,0.962116003036499,117.76726794242859,None,118.8110990524292,None,119.81693387031555,120.17787098884583,119.81693387031555,120.17787098884583,118.8110990524292,None,118.8110990524292,None,118.8110990524292,None,,,0,3,3000.545024871826,-1.0,-1,123.70997500419617,None,cecilia_pilot,icub,clamp,2021_Dec_17_1104,exp,2021.2.3,59.96677332372562,
right,go,0,0,0,0,3,5,23,4,124.2437059879303,None,1,0.7131650447845459,124.2437059879303,None,125.03743505477905,None,126.06464791297913,126.4243278503418,126.06464791297913,126.4243278503418,125.03743505477905,None,125.03743505477905,None,125.03743505477905,None,-1,-1,1,3,455.98506927490234,390.9790515899658,right,127.7963080406189,None,cecilia_pilot,icub,clamp,2021_Dec_17_1104,exp,2021.2.3,59.96677332372562,
left,go,0,0,0,0,4,0,24,0,128.30239701271057,None,1,0.4556620121002197,128.30239701271057,None,128.84338903427124,None,129.8582899570465,130.2111780643463,129.8582899570465,130.2111780643463,128.84338903427124,None,128.84338903427124,None,128.84338903427124,None,-1,-1,1,3,288.341760635376,546.9348430633545,left,131.56859493255615,None,cecilia_pilot,icub,clamp,2021_Dec_17_1104,exp,2021.2.3,59.96677332372562,
right,stop,0,0,0,0,4,1,25,5,132.08640885353088,None,1,0.4198179244995117,132.08640885353088,None,132.62444400787354,None,133.62121987342834,133.98384499549866,133.62121987342834,133.98384499549866,132.62444400787354,None,132.62444400787354,None,132.62444400787354,None,450,400,0,3,433.84504318237305,412.68420219421387,right,135.36805391311646,None,cecilia_pilot,icub,clamp,2021_Dec_17_1104,exp,2021.2.3,59.96677332372562,
left,go,0,0,0,0,4,2,26,1,135.879399061203,None,1,0.5948331356048584,135.879399061203,None,136.60253500938416,None,137.61235189437866,137.96564984321594,137.61235189437866,137.96564984321594,136.60253500938416,None,136.60253500938416,None,136.60253500938416,None,-1,-1,1,3,459.3219757080078,510.53500175476074,left,139.4713749885559,None,cecilia_pilot,icub,clamp,2021_Dec_17_1104,exp,2021.2.3,59.96677332372562,
left,go,0,0,0,0,4,3,27,0,139.9659960269928,None,1,0.4860670566558838,139.9659960269928,None,140.5682179927826,None,141.57194900512695,141.9284908771515,141.57194900512695,141.9284908771515,140.5682179927826,None,140.5682179927826,None,140.5682179927826,None,-1,-1,1,3,392.95339584350586,585.3519439697266,left,143.42434787750244,None,cecilia_pilot,icub,clamp,2021_Dec_17_1104,exp,2021.2.3,59.96677332372562,
right,go,0,0,0,0,4,4,28,4,143.93265986442566,None,1,0.34232592582702637,143.93265986442566,None,144.3503439426422,None,145.35518503189087,145.70205283164978,145.35518503189087,145.70205283164978,144.3503439426422,None,144.3503439426422,None,144.3503439426422,None,-1,-1,1,3,267.93956756591797,554.3563365936279,right,147.05011987686157,None,cecilia_pilot,icub,clamp,2021_Dec_17_1104,exp,2021.2.3,59.96677332372562,
right,go,0,0,0,0,4,5,29,3,147.55862998962402,None,1,0.3243131637573242,147.55862998962402,None,147.97850894927979,None,148.9763069152832,149.32356786727905,148.9763069152832,149.32356786727905,147.97850894927979,None,147.97850894927979,None,147.97850894927979,None,-1,-1,1,3,477.5218963623047,427.62112617492676,right,150.77550196647644,None,cecilia_pilot,icub,clamp,2021_Dec_17_1104,exp,2021.2.3,59.96677332372562,
right,go,0,0,0,0,5,0,30,3,151.28566193580627,None,1,0.32181215286254883,151.28566193580627,None,151.7083399295807,None,152.72667288780212,153.0777609348297,152.72667288780212,153.0777609348297,151.7083399295807,None,151.7083399295807,None,151.7083399295807,None,-1,-1,1,3,107.69867897033691,497.7998733520508,right,154.20809292793274,None,cecilia_pilot,icub,clamp,2021_Dec_17_1104,exp,2021.2.3,59.96677332372562,
left,go,0,0,0,0,5,1,31,1,154.70829486846924,None,1,0.30028390884399414,154.70829486846924,None,155.1271369457245,None,156.15389490127563,156.50146889686584,156.15389490127563,156.50146889686584,155.1271369457245,None,155.1271369457245,None,155.1271369457245,None,-1,-1,1,3,526.1847972869873,472.52631187438965,left,158.0146279335022,None,cecilia_pilot,icub,clamp,2021_Dec_17_1104,exp,2021.2.3,59.96677332372562,
left,stop,0,0,0,0,5,2,32,2,158.53006386756897,None,1,0.23198795318603516,158.53006386756897,None,158.88509798049927,None,159.9020390510559,160.2703559398651,159.9020390510559,160.2703559398651,158.88509798049927,None,158.88509798049927,None,158.88509798049927,None,450,350,0,3,425.01091957092285,443.7875747680664,left,161.65731596946716,None,cecilia_pilot,icub,clamp,2021_Dec_17_1104,exp,2021.2.3,59.96677332372562,
left,go,0,0,0,0,5,3,33,0,162.1723349094391,None,1,0.5892188549041748,162.1723349094391,None,162.8371250629425,None,163.86116194725037,164.21963596343994,163.86116194725037,164.21963596343994,162.8371250629425,None,162.8371250629425,None,162.8371250629425,None,-1,-1,1,3,262.96329498291016,404.54769134521484,left,165.38243103027344,None,cecilia_pilot,icub,clamp,2021_Dec_17_1104,exp,2021.2.3,59.96677332372562,
right,stop,0,0,0,0,5,4,34,5,165.89564204216003,None,1,0.31203413009643555,165.89564204216003,None,166.31496691703796,None,167.33952403068542,167.70374298095703,167.33952403068542,167.70374298095703,166.31496691703796,None,166.31496691703796,None,166.31496691703796,None,400,350,0,3,444.979190826416,421.63538932800293,right,169.06676292419434,None,cecilia_pilot,icub,clamp,2021_Dec_17_1104,exp,2021.2.3,59.96677332372562,
right,go,0,0,0,0,5,5,35,3,169.56878900527954,None,1,0.4599161148071289,169.56878900527954,None,170.10896706581116,None,171.142187833786,171.49629092216492,171.142187833786,171.49629092216492,170.10896706581116,None,170.10896706581116,None,170.10896706581116,None,-1,-1,1,3,290.32063484191895,529.3304920196533,right,172.8251428604126,None,cecilia_pilot,icub,clamp,2021_Dec_17_1104,exp,2021.2.3,59.96677332372562,
left,stop,0,0,0,0,6,0,36,2,173.33105492591858,None,1,0.3694751262664795,173.33105492591858,None,173.81074404716492,None,174.8250720500946,175.17121291160583,174.8250720500946,175.17121291160583,173.81074404716492,None,173.81074404716492,None,173.81074404716492,None,400,300,0,3,296.9045639038086,579.6287059783936,left,176.56840586662292,None,cecilia_pilot,icub,clamp,2021_Dec_17_1104,exp,2021.2.3,59.96677332372562,
right,stop,0,0,0,0,6,1,37,5,177.08143591880798,None,1,0.5682709217071533,177.08143591880798,None,177.75169801712036,None,178.77938985824585,179.13753700256348,178.77938985824585,179.13753700256348,177.75169801712036,None,177.75169801712036,None,177.75169801712036,None,350,300,0,3,453.8297653198242,466.9637680053711,right,180.5855770111084,None,cecilia_pilot,icub,clamp,2021_Dec_17_1104,exp,2021.2.3,59.96677332372562,
left,stop,0,0,0,0,6,2,38,2,181.10205101966858,None,1,0.4255509376525879,181.10205101966858,None,181.64340496063232,None,182.64655184745789,182.98560404777527,182.64655184745789,182.98560404777527,181.64340496063232,None,181.64340496063232,None,181.64340496063232,None,350,250,1,3,403.74302864074707,-1.0,-1,186.960196018219,None,cecilia_pilot,icub,clamp,2021_Dec_17_1104,exp,2021.2.3,59.96677332372562,
right,go,0,0,0,0,6,3,39,4,187.4526560306549,None,1,1.2334599494934082,187.4526560306549,None,188.8067979812622,None,189.79052305221558,190.14362287521362,189.79052305221558,190.14362287521362,188.8067979812622,None,188.8067979812622,None,188.8067979812622,None,-1,-1,1,3,422.1081733703613,533.771276473999,right,191.64923405647278,None,cecilia_pilot,icub,clamp,2021_Dec_17_1104,exp,2021.2.3,59.96677332372562,
left,go,0,0,0,0,6,4,40,0,192.1639609336853,None,1,0.3902881145477295,192.1639609336853,None,192.644779920578,None,193.64806604385376,194.00239992141724,193.64806604385376,194.00239992141724,192.644779920578,None,192.644779920578,None,192.644779920578,None,-1,-1,1,3,542.8907871246338,514.5087242126465,left,195.58936285972595,None,cecilia_pilot,icub,clamp,2021_Dec_17_1104,exp,2021.2.3,59.96677332372562,
left,go,0,0,0,0,6,5,41,0,196.10430598258972,None,1,0.2885410785675049,196.10430598258972,None,196.5203778743744,None,197.5365059375763,197.89486598968506,197.5365059375763,197.89486598968506,196.5203778743744,None,196.5203778743744,None,196.5203778743744,None,-1,-1,1,3,301.21421813964844,553.2522201538086,left,199.27944087982178,None,cecilia_pilot,icub,clamp,2021_Dec_17_1104,exp,2021.2.3,59.96677332372562,
right,go,0,0,0,0,7,0,42,4,199.7854380607605,None,1,0.3403139114379883,199.7854380607605,None,200.2059109210968,None,201.2083170413971,201.5344579219818,201.2083170413971,201.5344579219818,200.2059109210968,None,200.2059109210968,None,200.2059109210968,None,-1,-1,1,3,82.47733116149902,788.438081741333,right,202.9737708568573,None,cecilia_pilot,icub,clamp,2021_Dec_17_1104,exp,2021.2.3,59.96677332372562,
left,go,0,0,0,0,7,1,43,0,203.48463702201843,None,1,0.28595805168151855,203.48463702201843,None,203.898206949234,None,204.91085696220398,205.26570892333984,204.91085696220398,205.26570892333984,203.898206949234,None,203.898206949234,None,203.898206949234,None,-1,-1,1,3,221.58312797546387,595.1447486877441,left,206.61802291870117,None,cecilia_pilot,icub,clamp,2021_Dec_17_1104,exp,2021.2.3,59.96677332372562,
right,go,0,0,0,0,7,2,44,4,207.13959789276123,None,1,0.3222999572753906,207.13959789276123,None,207.5525119304657,None,208.5708019733429,208.9365530014038,208.5708019733429,208.9365530014038,207.5525119304657,None,207.5525119304657,None,207.5525119304657,None,-1,-1,1,3,444.399356842041,474.6987819671631,right,210.38331604003906,None,cecilia_pilot,icub,clamp,2021_Dec_17_1104,exp,2021.2.3,59.96677332372562,
left,go,0,0,0,0,7,3,45,1,210.8829369544983,None,1,0.29887914657592773,210.8829369544983,None,211.30087804794312,None,212.32676887512207,212.67728185653687,212.32676887512207,212.67728185653687,211.30087804794312,None,211.30087804794312,None,211.30087804794312,None,-1,-1,1,3,456.8018913269043,456.63952827453613,left,214.12026190757751,None,cecilia_pilot,icub,clamp,2021_Dec_17_1104,exp,2021.2.3,59.96677332372562,
left,go,0,0,0,0,7,4,46,0,214.6533019542694,None,1,0.23920702934265137,214.6533019542694,None,215.00813388824463,None,216.03367686271667,216.4029779434204,216.03367686271667,216.4029779434204,215.00813388824463,None,215.00813388824463,None,215.00813388824463,None,-1,-1,1,3,345.51072120666504,394.9863910675049,left,217.62297797203064,None,cecilia_pilot,icub,clamp,2021_Dec_17_1104,exp,2021.2.3,59.96677332372562,
right,go,0,0,0,0,7,5,47,3,218.12621998786926,None,1,0.3112030029296875,218.12621998786926,None,218.54393196105957,None,219.53673195838928,219.8904378414154,219.53673195838928,219.8904378414154,218.54393196105957,None,218.54393196105957,None,218.54393196105957,None,-1,-1,1,3,191.89453125,402.18520164489746,right,221.0149269104004,None,cecilia_pilot,icub,clamp,2021_Dec_17_1104,exp,2021.2.3,59.96677332372562,
left,stop,0,0,0,0,8,0,48,2,221.52861905097961,None,1,0.30213284492492676,221.52861905097961,None,221.94481492042542,None,222.95481395721436,223.31202697753906,222.95481395721436,223.31202697753906,221.94481492042542,None,221.94481492042542,None,221.94481492042542,None,400,250,0,3,169.39473152160645,436.84864044189453,left,224.4608118534088,None,cecilia_pilot,icub,clamp,2021_Dec_17_1104,exp,2021.2.3,59.96677332372562,
right,stop,0,0,0,0,8,1,49,5,224.97406792640686,None,1,0.5704848766326904,224.97406792640686,None,225.6391830444336,None,226.66272687911987,227.00934600830078,226.66272687911987,227.00934600830078,225.6391830444336,None,225.6391830444336,None,225.6391830444336,None,350,250,1,3,264.74666595458984,-1.0,-1,230.8104088306427,None,cecilia_pilot,icub,clamp,2021_Dec_17_1104,exp,2021.2.3,59.96677332372562,
right,stop,0,0,0,0,8,2,50,5,231.30487990379333,None,1,0.6330771446228027,231.30487990379333,None,232.04064083099365,None,233.04535698890686,233.39888906478882,233.04535698890686,233.39888906478882,232.04064083099365,None,232.04064083099365,None,232.04064083099365,None,350,300,0,3,573.2038021087646,386.19518280029297,right,234.89387702941895,None,cecilia_pilot,icub,clamp,2021_Dec_17_1104,exp,2021.2.3,59.96677332372562,
right,stop,0,0,0,0,8,3,51,5,235.40960502624512,None,1,28.053677082061768,235.40960502624512,None,263.58238887786865,None,264.5961549282074,264.9306778907776,264.5961549282074,264.9306778907776,263.58238887786865,None,263.58238887786865,None,263.58238887786865,None,,,0,3,-1.0,-1.0,-1,265.1512370109558,None,cecilia_pilot,icub,clamp,2021_Dec_17_1104,exp,2021.2.3,59.96677332372562,
left,stop,0,0,0,0,8,4,52,2,265.66953206062317,None,1,1.245124101638794,265.66953206062317,None,267.00499296188354,None,268.0064129829407,268.3488268852234,268.0064129829407,268.3488268852234,267.00499296188354,None,267.00499296188354,None,267.00499296188354,None,350,250,0,3,406.43954277038574,425.0655174255371,left,269.71192693710327,None,cecilia_pilot,icub,clamp,2021_Dec_17_1104,exp,2021.2.3,59.96677332372562,
right,go,0,0,0,0,8,5,53,3,270.22183895111084,None,1,0.7817201614379883,270.22183895111084,None,271.13186597824097,None,272.1666610240936,272.5244359970093,272.1666610240936,272.5244359970093,271.13186597824097,None,271.13186597824097,None,271.13186597824097,None,-1,-1,1,3,202.09383964538574,455.8749198913574,right,273.6749198436737,None,cecilia_pilot,icub,clamp,2021_Dec_17_1104,exp,2021.2.3,59.96677332372562,
left,stop,0,0,0,0,9,0,54,2,274.1809709072113,None,1,0.6846368312835693,274.1809709072113,None,274.9698488712311,None,275.9876229763031,276.3448598384857,275.9876229763031,276.3448598384857,274.9698488712311,None,274.9698488712311,None,274.9698488712311,None,300,250,0,3,218.89829635620117,423.68078231811523,left,277.49223589897156,None,cecilia_pilot,icub,clamp,2021_Dec_17_1104,exp,2021.2.3,59.96677332372562,
left,stop,0,0,0,0,9,1,55,2,278.0192940235138,None,1,0.6373240947723389,278.0192940235138,None,278.7449679374695,None,279.75423789024353,280.1172020435333,279.75423789024353,280.1172020435333,278.7449679374695,None,278.7449679374695,None,278.7449679374695,None,250,250,1,3,390.0151252746582,-1.0,-1,284.0251920223236,None,cecilia_pilot,icub,clamp,2021_Dec_17_1104,exp,2021.2.3,59.96677332372562,
right,stop,0,0,0,0,9,2,56,5,284.51800298690796,None,1,0.6346290111541748,284.51800298690796,None,285.255313873291,None,286.2368178367615,286.5808439254761,286.2368178367615,286.5808439254761,285.255313873291,None,285.255313873291,None,285.255313873291,None,300,250,1,3,284.5633029937744,-1.0,-1,290.41668486595154,None,cecilia_pilot,icub,clamp,2021_Dec_17_1104,exp,2021.2.3,59.96677332372562,
left,go,0,0,0,0,9,3,57,1,290.94913697242737,None,1,0.5264689922332764,290.94913697242737,None,291.5625228881836,None,292.5424978733063,292.8772280216217,292.5424978733063,292.8772280216217,291.5625228881836,None,291.5625228881836,None,291.5625228881836,None,-1,-1,1,3,236.4816665649414,519.1309452056885,left,294.20684599876404,None,cecilia_pilot,icub,clamp,2021_Dec_17_1104,exp,2021.2.3,59.96677332372562,
right,stop,0,0,0,0,9,4,58,5,294.7211170196533,None,1,0.565453052520752,294.7211170196533,None,295.3871998786926,None,296.4008688926697,296.75017189979553,296.4008688926697,296.75017189979553,295.3871998786926,None,295.3871998786926,None,295.3871998786926,None,300,300,1,3,276.9613265991211,-1.0,-1,300.5566439628601,None,cecilia_pilot,icub,clamp,2021_Dec_17_1104,exp,2021.2.3,59.96677332372562,
right,go,0,0,0,0,9,5,59,3,301.0892000198364,None,1,0.5633740425109863,301.0892000198364,None,301.761775970459,None,302.7499489784241,303.11484599113464,302.7499489784241,303.11484599113464,301.761775970459,None,301.761775970459,None,301.761775970459,None,-1,-1,1,3,231.18352890014648,573.4636783599854,right,304.4369258880615,None,cecilia_pilot,icub,clamp,2021_Dec_17_1104,exp,2021.2.3,59.96677332372562,
left,stop,0,0,0,0,10,0,60,2,304.94344687461853,None,1,0.40802597999572754,304.94344687461853,None,305.42687487602234,None,306.45308089256287,306.81002497673035,306.45308089256287,306.81002497673035,305.42687487602234,None,305.42687487602234,None,305.42687487602234,None,300,350,1,3,58.34221839904785,-1.0,-1,310.3901858329773,None,cecilia_pilot,icub,clamp,2021_Dec_17_1104,exp,2021.2.3,59.96677332372562,
right,go,0,0,0,0,10,1,61,3,310.92254996299744,None,1,0.6570501327514648,310.92254996299744,None,311.7196259498596,None,312.70214796066284,313.0461640357971,312.70214796066284,313.0461640357971,311.7196259498596,None,311.7196259498596,None,311.7196259498596,None,,,0,3,-1.0,-1.0,-1,313.2141270637512,None,cecilia_pilot,icub,clamp,2021_Dec_17_1104,exp,2021.2.3,59.96677332372562,
right,stop,0,0,0,0,10,2,62,5,313.7447578907013,None,1,1.1488471031188965,313.7447578907013,None,314.975075006485,None,315.95619201660156,316.29924297332764,315.95619201660156,316.29924297332764,314.975075006485,None,314.975075006485,None,314.975075006485,None,350,350,1,3,108.39605331420898,-1.0,-1,319.9777660369873,None,cecilia_pilot,icub,clamp,2021_Dec_17_1104,exp,2021.2.3,59.96677332372562,
left,go,0,0,0,0,10,3,63,0,320.4697759151459,None,1,0.7327349185943604,320.4697759151459,None,321.32940888404846,None,322.30596685409546,322.66099786758423,322.30596685409546,322.66099786758423,321.32940888404846,None,321.32940888404846,None,321.32940888404846,None,-1,-1,1,3,540.1086807250977,628.6425590515137,left,324.4010648727417,None,cecilia_pilot,icub,clamp,2021_Dec_17_1104,exp,2021.2.3,59.96677332372562,
left,go,0,0,0,0,10,4,64,0,324.91682505607605,None,1,0.3091578483581543,324.91682505607605,None,325.33340883255005,None,326.3503830432892,326.69724798202515,326.3503830432892,326.69724798202515,325.33340883255005,None,325.33340883255005,None,325.33340883255005,None,-1,-1,1,3,298.6786365509033,570.397138595581,left,328.0859389305115,None,cecilia_pilot,icub,clamp,2021_Dec_17_1104,exp,2021.2.3,59.96677332372562,
left,stop,0,0,0,0,10,5,65,2,328.59909296035767,None,1,0.30707812309265137,328.59909296035767,None,329.01724100112915,None,330.02728605270386,330.3741159439087,330.02728605270386,330.3741159439087,329.01724100112915,None,329.01724100112915,None,329.01724100112915,None,350,400,0,3,269.4525718688965,490.8573627471924,left,331.68134689331055,None,cecilia_pilot,icub,clamp,2021_Dec_17_1104,exp,2021.2.3,59.96677332372562,
left,stop,0,0,0,0,11,0,66,2,332.19416904449463,None,1,1.0428240299224854,332.19416904449463,None,333.3496198654175,None,334.37283205986023,334.72200298309326,334.37283205986023,334.72200298309326,333.3496198654175,None,333.3496198654175,None,333.3496198654175,None,300,400,1,3,312.17217445373535,-1.0,-1,338.5748429298401,None,cecilia_pilot,icub,clamp,2021_Dec_17_1104,exp,2021.2.3,59.96677332372562,
right,go,0,0,0,0,11,1,67,4,339.0688078403473,None,1,0.5656459331512451,339.0688078403473,None,339.74257493019104,None,340.74578285217285,341.0976929664612,340.74578285217285,341.0976929664612,339.74257493019104,None,339.74257493019104,None,339.74257493019104,None,-1,-1,1,3,118.89529228210449,575.035810470581,right,342.30816197395325,None,cecilia_pilot,icub,clamp,2021_Dec_17_1104,exp,2021.2.3,59.96677332372562,
left,stop,0,0,0,0,11,2,68,2,342.8430459499359,None,1,0.5250551700592041,342.8430459499359,None,343.44840383529663,None,344.4619998931885,344.81916785240173,344.4619998931885,344.81916785240173,343.44840383529663,None,343.44840383529663,None,343.44840383529663,None,350,400,1,3,295.8717346191406,-1.0,-1,348.64745688438416,None,cecilia_pilot,icub,clamp,2021_Dec_17_1104,exp,2021.2.3,59.96677332372562,
left,go,0,0,0,0,11,3,69,1,349.1800580024719,None,1,1.642313003540039,349.1800580024719,None,350.90435886383057,None,351.888445854187,352.2478778362274,351.888445854187,352.2478778362274,350.90435886383057,None,350.90435886383057,None,350.90435886383057,None,-1,-1,1,3,435.244083404541,655.5263996124268,left,353.86825299263,None,cecilia_pilot,icub,clamp,2021_Dec_17_1104,exp,2021.2.3,59.96677332372562,
left,go,0,0,0,0,11,4,70,1,354.39045095443726,None,1,0.5007500648498535,354.39045095443726,None,355.01903200149536,None,356.0289089679718,356.38064789772034,356.0289089679718,356.38064789772034,355.01903200149536,None,355.01903200149536,None,355.01903200149536,None,-1,-1,1,3,553.7400245666504,507.1065425872803,left,357.9727039337158,None,cecilia_pilot,icub,clamp,2021_Dec_17_1104,exp,2021.2.3,59.96677332372562,
right,go,0,0,0,0,11,5,71,3,358.4907748699188,None,1,0.568181037902832,358.4907748699188,None,359.16060090065,None,360.1564519405365,360.4884328842163,360.1564519405365,360.4884328842163,359.16060090065,None,359.16060090065,None,359.16060090065,None,-1,-1,1,3,511.7452144622803,631.129264831543,right,362.1926369667053,None,cecilia_pilot,icub,clamp,2021_Dec_17_1104,exp,2021.2.3,59.96677332372562,
right,go,0,0,0,0,12,0,72,4,362.7088348865509,None,1,0.3972461223602295,362.7088348865509,None,363.1914508342743,None,364.2076768875122,364.5363600254059,364.2076768875122,364.5363600254059,363.1914508342743,None,363.1914508342743,None,363.1914508342743,None,-1,-1,1,3,464.3270969390869,535.2799892425537,right,366.0684380531311,None,cecilia_pilot,icub,clamp,2021_Dec_17_1104,exp,2021.2.3,59.96677332372562,
left,stop,0,0,0,0,12,1,73,2,366.56858706474304,None,1,0.36827683448791504,366.56858706474304,None,367.0481958389282,None,368.06627202033997,368.4204878807068,368.06627202033997,368.4204878807068,367.0481958389282,None,367.0481958389282,None,367.0481958389282,None,400,400,0,3,563.5683536529541,441.71786308288574,left,369.9613399505615,None,cecilia_pilot,icub,clamp,2021_Dec_17_1104,exp,2021.2.3,59.96677332372562,
right,go,0,0,0,0,12,2,74,4,370.4842050075531,None,1,0.7655179500579834,370.4842050075531,None,371.33534383773804,None,372.3381378650665,372.6813349723816,372.3381378650665,372.6813349723816,371.33534383773804,None,371.33534383773804,None,371.33534383773804,None,-1,-1,1,3,404.0353298187256,453.5961151123047,right,374.0779390335083,None,cecilia_pilot,icub,clamp,2021_Dec_17_1104,exp,2021.2.3,59.96677332372562,
left,go,0,0,0,0,12,3,75,1,374.5977568626404,None,1,0.38893604278564453,374.5977568626404,None,375.0772268772125,None,376.08331298828125,376.43426990509033,376.08331298828125,376.43426990509033,375.0772268772125,None,375.0772268772125,None,375.0772268772125,None,-1,-1,1,3,462.5210762023926,485.84818840026855,left,377.913311958313,None,cecilia_pilot,icub,clamp,2021_Dec_17_1104,exp,2021.2.3,59.96677332372562,
right,go,0,0,0,0,12,4,76,3,378.4336259365082,None,1,0.43410706520080566,378.4336259365082,None,378.97866106033325,None,379.9816429615021,380.3367428779602,379.9816429615021,380.3367428779602,378.97866106033325,None,378.97866106033325,None,378.97866106033325,None,-1,-1,1,3,489.032506942749,451.6596794128418,right,381.80196499824524,None,cecilia_pilot,icub,clamp,2021_Dec_17_1104,exp,2021.2.3,59.96677332372562,
right,stop,0,0,0,0,12,5,77,5,382.3006579875946,None,1,0.37711381912231445,382.3006579875946,None,382.7846009731293,None,383.816036939621,384.1665029525757,383.816036939621,384.1665029525757,382.7846009731293,None,382.7846009731293,None,382.7846009731293,None,350,400,0,3,532.8750610351562,514.9638652801514,right,385.7066299915314,None,cecilia_pilot,icub,clamp,2021_Dec_17_1104,exp,2021.2.3,59.96677332372562,
right,stop,1,0,1,0,0,0,0,5,406.11209893226624,None,1,3.36378812789917,406.11209893226624,None,409.6039710044861,None,410.6220338344574,410.9824709892273,410.6220338344574,410.9824709892273,409.6039710044861,None,409.6039710044861,None,409.6039710044861,None,350,350,0,3,262.7110481262207,437.7760887145996,right,412.2062690258026,None,cecilia_pilot,icub,clamp,2021_Dec_17_1104,exp,2021.2.3,59.96677332372562,
right,go,1,0,1,0,0,1,1,3,412.7070689201355,None,1,0.7257881164550781,412.7070689201355,None,413.55751395225525,None,414.5844659805298,414.93723487854004,414.5844659805298,414.93723487854004,413.55751395225525,None,413.55751395225525,None,413.55751395225525,None,-1,-1,1,3,333.53543281555176,565.5603408813477,right,416.3621139526367,None,cecilia_pilot,icub,clamp,2021_Dec_17_1104,exp,2021.2.3,59.96677332372562,
right,go,1,0,1,0,0,2,2,4,416.87609004974365,None,1,0.3792998790740967,416.87609004974365,None,417.3565649986267,None,418.38670206069946,418.737242937088,418.38670206069946,418.737242937088,417.3565649986267,None,417.3565649986267,None,417.3565649986267,None,-1,-1,1,3,245.33629417419434,424.16930198669434,right,419.93617701530457,None,cecilia_pilot,icub,clamp,2021_Dec_17_1104,exp,2021.2.3,59.96677332372562,
right,go,1,0,1,0,0,3,3,4,420.4529478549957,None,1,0.42884206771850586,420.4529478549957,None,420.99755096435547,None,422.0099530220032,422.3685870170593,422.0099530220032,422.3685870170593,420.99755096435547,None,420.99755096435547,None,420.99755096435547,None,-1,-1,1,3,255.6910514831543,600.1906394958496,right,423.754075050354,None,cecilia_pilot,icub,clamp,2021_Dec_17_1104,exp,2021.2.3,59.96677332372562,
right,go,1,0,1,0,0,4,4,4,424.26471996307373,None,1,0.30289196968078613,424.26471996307373,None,424.6850118637085,None,425.6812119483948,426.03466796875,425.6812119483948,426.03466796875,424.6850118637085,None,424.6850118637085,None,424.6850118637085,None,-1,-1,1,3,43.22075843811035,457.14855194091797,right,427.0587320327759,None,cecilia_pilot,icub,clamp,2021_Dec_17_1104,exp,2021.2.3,59.96677332372562,
right,go,1,0,1,0,0,5,5,3,427.558965921402,None,1,0.4229118824005127,427.558965921402,None,428.1001708507538,None,429.09363889694214,429.4523458480835,429.09363889694214,429.4523458480835,428.1001708507538,None,428.1001708507538,None,428.1001708507538,None,-1,-1,1,3,91.28642082214355,439.6381378173828,right,430.5096950531006,None,cecilia_pilot,icub,clamp,2021_Dec_17_1104,exp,2021.2.3,59.96677332372562,
right,stop,1,0,1,0,1,0,6,5,431.028156042099,None,1,0.4243500232696533,431.028156042099,None,431.5683698654175,None,432.5728108882904,432.8949019908905,432.5728108882904,432.8949019908905,431.5683698654175,None,431.5683698654175,None,431.5683698654175,None,350,300,1,3,211.531400680542,-1.0,-1,436.67873787879944,None,cecilia_pilot,icub,clamp,2021_Dec_17_1104,exp,2021.2.3,59.96677332372562,
left,stop,1,0,1,0,1,1,7,2,437.21118092536926,None,1,0.6038219928741455,437.21118092536926,None,437.9460349082947,None,438.9284038543701,439.27562189102173,438.9284038543701,439.27562189102173,437.9460349082947,None,437.9460349082947,None,437.9460349082947,None,350,350,1,3,388.66472244262695,-1.0,-1,443.23806405067444,None,cecilia_pilot,icub,clamp,2021_Dec_17_1104,exp,2021.2.3,59.96677332372562,
left,stop,1,0,1,0,1,2,8,2,443.770868062973,None,1,0.704193115234375,443.770868062973,None,444.56827783584595,None,445.57906889915466,445.9327919483185,445.57906889915466,445.9327919483185,444.56827783584595,None,444.56827783584595,None,444.56827783584595,None,400,350,1,3,450.2389430999756,-1.0,-1,449.90029096603394,None,cecilia_pilot,icub,clamp,2021_Dec_17_1104,exp,2021.2.3,59.96677332372562,
right,go,1,0,1,0,1,3,9,3,450.43229484558105,None,1,0.6786990165710449,450.43229484558105,None,451.2228829860687,None,452.233393907547,452.58712887763977,452.233393907547,452.58712887763977,451.2228829860687,None,451.2228829860687,None,451.2228829860687,None,-1,-1,1,3,551.776647567749,428.9660453796387,right,454.0891239643097,None,cecilia_pilot,icub,clamp,2021_Dec_17_1104,exp,2021.2.3,59.96677332372562,
right,stop,1,0,1,0,1,4,10,5,454.614697933197,None,1,0.5548789501190186,454.614697933197,None,455.2795078754425,None,456.2804799079895,456.6408748626709,456.2804799079895,456.6408748626709,455.2795078754425,None,455.2795078754425,None,455.2795078754425,None,450,350,1,3,304.02159690856934,-1.0,-1,460.49027395248413,None,cecilia_pilot,icub,clamp,2021_Dec_17_1104,exp,2021.2.3,59.96677332372562,
left,go,1,0,1,0,1,5,11,0,461.02127385139465,None,1,0.4376211166381836,461.02127385139465,None,461.5728828907013,None,462.5483708381653,462.90697288513184,462.5483708381653,462.90697288513184,461.5728828907013,None,461.5728828907013,None,461.5728828907013,None,-1,-1,1,3,560.4872703552246,589.5214080810547,left,464.6224009990692,None,cecilia_pilot,icub,clamp,2021_Dec_17_1104,exp,2021.2.3,59.96677332372562,
left,go,1,0,1,0,2,0,12,0,465.1566689014435,None,1,0.31468701362609863,465.1566689014435,None,465.5772190093994,None,466.5644459724426,466.9111478328705,466.5644459724426,466.9111478328705,465.5772190093994,None,465.5772190093994,None,465.5772190093994,None,-1,-1,1,3,476.58300399780273,522.0491886138916,left,468.45208287239075,None,cecilia_pilot,icub,clamp,2021_Dec_17_1104,exp,2021.2.3,59.96677332372562,
right,stop,1,0,1,0,2,1,13,5,468.9657790660858,None,1,0.3709828853607178,468.9657790660858,None,469.4472939968109,None,470.46258783340454,470.81664991378784,470.46258783340454,470.81664991378784,469.4472939968109,None,469.4472939968109,None,469.4472939968109,None,450,400,0,3,339.2918109893799,433.33935737609863,right,472.1181478500366,None,cecilia_pilot,icub,clamp,2021_Dec_17_1104,exp,2021.2.3,59.96677332372562,
left,go,1,0,1,0,2,2,14,0,472.62964487075806,None,1,1.5187699794769287,472.62964487075806,None,474.2240219116211,None,475.2270588874817,475.5830509662628,475.2270588874817,475.5830509662628,474.2240219116211,None,474.2240219116211,None,474.2240219116211,None,-1,-1,1,3,399.31631088256836,554.6064376831055,left,477.066694021225,None,cecilia_pilot,icub,clamp,2021_Dec_17_1104,exp,2021.2.3,59.96677332372562,
right,go,1,0,1,0,2,3,15,4,477.57028794288635,None,1,0.3660421371459961,477.57028794288635,None,478.05173683166504,None,479.0766558647156,479.4193170070648,479.0766558647156,479.4193170070648,478.05173683166504,None,478.05173683166504,None,478.05173683166504,None,-1,-1,1,3,376.53112411499023,461.4722728729248,right,480.7805030345917,None,cecilia_pilot,icub,clamp,2021_Dec_17_1104,exp,2021.2.3,59.96677332372562,
right,stop,1,0,1,0,2,4,16,5,481.3123369216919,None,1,0.4949331283569336,481.3123369216919,None,481.91648602485657,None,482.9178810119629,483.2701828479767,482.9178810119629,483.2701828479767,481.91648602485657,None,481.91648602485657,None,481.91648602485657,None,450,350,0,3,354.10547256469727,456.91871643066406,right,484.60435700416565,None,cecilia_pilot,icub,clamp,2021_Dec_17_1104,exp,2021.2.3,59.96677332372562,
left,go,1,0,1,0,2,5,17,1,485.1017768383026,None,1,0.767848014831543,485.1017768383026,None,485.95636105537415,None,486.9560749530792,487.3084509372711,486.9560749530792,487.3084509372711,485.95636105537415,None,485.95636105537415,None,485.95636105537415,None,-1,-1,1,3,494.59004402160645,608.2935333251953,left,488.94766187667847,None,cecilia_pilot,icub,clamp,2021_Dec_17_1104,exp,2021.2.3,59.96677332372562,
left,go,1,0,1,0,3,0,18,0,489.4665319919586,None,1,0.29187798500061035,489.4665319919586,None,489.88228487968445,None,490.89389085769653,491.24088501930237,490.89389085769653,491.24088501930237,489.88228487968445,None,489.88228487968445,None,489.88228487968445,None,-1,-1,1,3,334.99908447265625,546.945333480835,left,492.64908599853516,None,cecilia_pilot,icub,clamp,2021_Dec_17_1104,exp,2021.2.3,59.96677332372562,
left,go,1,0,1,0,3,1,19,1,493.15962290763855,None,1,0.294780969619751,493.15962290763855,None,493.5735459327698,None,494.5731010437012,494.9246518611908,494.5731010437012,494.9246518611908,493.5735459327698,None,493.5735459327698,None,493.5735459327698,None,-1,-1,1,3,225.16679763793945,461.9612693786621,left,496.16941690444946,None,cecilia_pilot,icub,clamp,2021_Dec_17_1104,exp,2021.2.3,59.96677332372562,
right,go,1,0,1,0,3,2,20,3,496.68930983543396,None,1,0.2881009578704834,496.68930983543396,None,497.1068580150604,None,498.1176838874817,498.4829149246216,498.1176838874817,498.4829149246216,497.1068580150604,None,497.1068580150604,None,497.1068580150604,None,,,0,3,-1.0,-1.0,-1,498.97529196739197,None,cecilia_pilot,icub,clamp,2021_Dec_17_1104,exp,2021.2.3,59.96677332372562,
right,go,1,0,1,0,3,3,21,4,499.46888303756714,None,1,0.7068018913269043,499.46888303756714,None,500.26760506629944,None,501.2503559589386,501.6018829345703,501.2503559589386,501.6018829345703,500.26760506629944,None,500.26760506629944,None,500.26760506629944,None,-1,-1,1,3,110.31436920166016,456.39824867248535,right,502.73752188682556,None,cecilia_pilot,icub,clamp,2021_Dec_17_1104,exp,2021.2.3,59.96677332372562,
left,go,1,0,1,0,3,4,22,0,503.26931285858154,None,1,0.32224512100219727,503.26931285858154,None,503.6915810108185,None,504.7147169113159,505.0616068840027,504.7147169113159,505.0616068840027,503.6915810108185,None,503.6915810108185,None,503.6915810108185,None,-1,-1,1,3,535.1340770721436,410.2036952972412,left,506.53455805778503,None,cecilia_pilot,icub,clamp,2021_Dec_17_1104,exp,2021.2.3,59.96677332372562,
left,stop,1,0,1,0,3,5,23,2,507.0443379878998,None,1,0.39988112449645996,507.0443379878998,None,507.52464985847473,None,508.5328209400177,508.8884689807892,508.5328209400177,508.8884689807892,507.52464985847473,None,507.52464985847473,None,507.52464985847473,None,450,300,0,3,352.94413566589355,450.0284194946289,left,510.22865200042725,None,cecilia_pilot,icub,clamp,2021_Dec_17_1104,exp,2021.2.3,59.96677332372562,
left,go,1,0,1,0,4,0,24,0,510.75833201408386,None,1,0.5308339595794678,510.75833201408386,None,511.40702295303345,None,512.3984830379486,512.7529418468475,512.3984830379486,512.7529418468475,511.40702295303345,None,511.40702295303345,None,511.40702295303345,None,-1,-1,1,3,484.45963859558105,452.05235481262207,left,514.2219760417938,None,cecilia_pilot,icub,clamp,2021_Dec_17_1104,exp,2021.2.3,59.96677332372562,
left,go,1,0,1,0,4,1,25,1,514.7242720127106,None,1,0.3468968868255615,514.7242720127106,None,515.1464939117432,None,516.1533360481262,516.506227016449,516.1533360481262,516.506227016449,515.1464939117432,None,515.1464939117432,None,515.1464939117432,None,-1,-1,1,3,335.13450622558594,548.691987991333,left,517.923789024353,None,cecilia_pilot,icub,clamp,2021_Dec_17_1104,exp,2021.2.3,59.96677332372562,
left,go,1,0,1,0,4,2,26,0,518.4369840621948,None,1,0.2780308723449707,518.4369840621948,None,518.7955009937286,None,519.8052909374237,520.1654109954834,519.8052909374237,520.1654109954834,518.7955009937286,None,518.7955009937286,None,518.7955009937286,None,-1,-1,1,3,312.81089782714844,560.1823329925537,left,521.5673649311066,None,cecilia_pilot,icub,clamp,2021_Dec_17_1104,exp,2021.2.3,59.96677332372562,
left,go,1,0,1,0,4,3,27,1,522.0892939567566,None,1,0.5376250743865967,522.0892939567566,None,522.7553479671478,None,523.7702660560608,524.1157848834991,523.7702660560608,524.1157848834991,522.7553479671478,None,522.7553479671478,None,522.7553479671478,None,-1,-1,1,3,446.7134475708008,636.328935623169,left,525.723345041275,None,cecilia_pilot,icub,clamp,2021_Dec_17_1104,exp,2021.2.3,59.96677332372562,
right,stop,1,0,1,0,4,4,28,5,526.2600040435791,None,1,0.2699868679046631,526.2600040435791,None,526.6156458854675,None,527.6473090648651,528.0021679401398,527.6473090648651,528.0021679401398,526.6156458854675,None,526.6156458854675,None,526.6156458854675,None,400,300,1,3,262.5606060028076,-1.0,-1,531.7498059272766,None,cecilia_pilot,icub,clamp,2021_Dec_17_1104,exp,2021.2.3,59.96677332372562,
left,stop,1,0,1,0,4,5,29,2,532.2815358638763,None,1,0.5459840297698975,532.2815358638763,None,532.9569020271301,None,533.931056022644,534.258889913559,533.931056022644,534.258889913559,532.9569020271301,None,532.9569020271301,None,532.9569020271301,None,400,350,0,3,530.9529304504395,396.81243896484375,left,535.7664940357208,None,cecilia_pilot,icub,clamp,2021_Dec_17_1104,exp,2021.2.3,59.96677332372562,
right,go,1,0,1,0,5,0,30,4,536.2761609554291,None,1,0.48891711235046387,536.2761609554291,None,536.8782699108124,None,537.8934328556061,538.2557058334351,537.8934328556061,538.2557058334351,536.8782699108124,None,536.8782699108124,None,536.8782699108124,None,-1,-1,1,3,393.3134078979492,493.3469295501709,right,539.6776249408722,None,cecilia_pilot,icub,clamp,2021_Dec_17_1104,exp,2021.2.3,59.96677332372562,
right,go,1,0,1,0,5,1,31,4,540.2057259082794,None,1,0.3182210922241211,540.2057259082794,None,540.6253008842468,None,541.6518838405609,541.9858379364014,541.6518838405609,541.9858379364014,540.6253008842468,None,540.6253008842468,None,540.6253008842468,None,-1,-1,1,3,367.1224117279053,634.5229148864746,right,543.5029609203339,None,cecilia_pilot,icub,clamp,2021_Dec_17_1104,exp,2021.2.3,59.96677332372562,
left,stop,1,0,1,0,5,2,32,2,544.0083169937134,None,1,0.3409080505371094,544.0083169937134,None,544.42955493927,None,545.4615199565887,545.8149118423462,545.4615199565887,545.8149118423462,544.42955493927,None,544.42955493927,None,544.42955493927,None,350,350,1,3,238.45195770263672,-1.0,-1,549.5439059734344,None,cecilia_pilot,icub,clamp,2021_Dec_17_1104,exp,2021.2.3,59.96677332372562,
left,go,1,0,1,0,5,3,33,0,550.0764980316162,None,1,0.6839931011199951,550.0764980316162,None,550.872771024704,None,551.8551609516144,552.2095808982849,551.8551609516144,552.2095808982849,550.872771024704,None,550.872771024704,None,550.872771024704,None,-1,-1,1,3,277.57859230041504,414.54052925109863,left,553.4648969173431,None,cecilia_pilot,icub,clamp,2021_Dec_17_1104,exp,2021.2.3,59.96677332372562,
right,go,1,0,1,0,5,4,34,4,553.9804909229279,None,1,0.26907801628112793,553.9804909229279,None,554.3403749465942,None,555.3629858493805,555.7232089042664,555.3629858493805,555.7232089042664,554.3403749465942,None,554.3403749465942,None,554.3403749465942,None,-1,-1,1,3,299.9885082244873,499.70412254333496,right,557.0087158679962,None,cecilia_pilot,icub,clamp,2021_Dec_17_1104,exp,2021.2.3,59.96677332372562,
left,go,1,0,1,0,5,5,35,1,557.528785943985,None,1,0.30619215965270996,557.528785943985,None,557.9455859661102,None,558.9401998519897,559.2921769618988,558.9401998519897,559.2921769618988,557.9455859661102,None,557.9455859661102,None,557.9455859661102,None,-1,-1,1,3,317.3673152923584,470.4420566558838,left,560.6230139732361,None,cecilia_pilot,icub,clamp,2021_Dec_17_1104,exp,2021.2.3,59.96677332372562,
right,stop,1,0,1,0,6,0,36,5,561.1563220024109,None,1,0.32094693183898926,561.1563220024109,None,561.5789928436279,None,562.575423002243,562.9204728603363,562.575423002243,562.9204728603363,561.5789928436279,None,561.5789928436279,None,561.5789928436279,None,400,350,0,3,394.0722942352295,502.3798942565918,right,564.3872668743134,None,cecilia_pilot,icub,clamp,2021_Dec_17_1104,exp,2021.2.3,59.96677332372562,
left,go,1,0,1,0,6,1,37,0,564.8914549350739,None,1,0.7246479988098145,564.8914549350739,None,565.7392129898071,None,566.7386200428009,567.0900900363922,566.7386200428009,567.0900900363922,565.7392129898071,None,565.7392129898071,None,565.7392129898071,None,-1,-1,1,3,294.01135444641113,523.9794254302979,left,568.4385788440704,None,cecilia_pilot,icub,clamp,2021_Dec_17_1104,exp,2021.2.3,59.96677332372562,
right,stop,1,0,1,0,6,2,38,5,568.952339887619,None,1,0.3839681148529053,568.952339887619,None,569.4373068809509,None,570.4582860469818,570.8140158653259,570.4582860469818,570.8140158653259,569.4373068809509,None,569.4373068809509,None,569.4373068809509,None,400,300,1,3,274.7776508331299,-1.0,-1,574.6078820228577,None,cecilia_pilot,icub,clamp,2021_Dec_17_1104,exp,2021.2.3,59.96677332372562,
left,stop,1,0,1,0,6,3,39,2,575.1405639648438,None,1,0.5398080348968506,575.1405639648438,None,575.815052986145,None,576.8135738372803,577.1647820472717,576.8135738372803,577.1647820472717,575.815052986145,None,575.815052986145,None,575.815052986145,None,400,350,0,3,312.9467964172363,477.8900146484375,left,578.4886059761047,None,cecilia_pilot,icub,clamp,2021_Dec_17_1104,exp,2021.2.3,59.96677332372562,
left,go,1,0,1,0,6,4,40,0,578.9975709915161,None,1,0.4835801124572754,578.9975709915161,None,579.6015808582306,None,580.6087579727173,580.9630260467529,580.6087579727173,580.9630260467529,579.6015808582306,None,579.6015808582306,None,579.6015808582306,None,-1,-1,1,3,467.39649772644043,614.5601272583008,left,582.5806088447571,None,cecilia_pilot,icub,clamp,2021_Dec_17_1104,exp,2021.2.3,59.96677332372562,
right,go,1,0,1,0,6,5,41,3,583.0981349945068,None,1,0.2549247741699219,583.0981349945068,None,583.4542689323425,None,584.4691228866577,584.8371019363403,584.4691228866577,584.8371019363403,583.4542689323425,None,583.4542689323425,None,583.4542689323425,None,-1,-1,1,3,261.7518901824951,548.590898513794,right,586.1768660545349,None,cecilia_pilot,icub,clamp,2021_Dec_17_1104,exp,2021.2.3,59.96677332372562,
right,stop,1,0,1,0,7,0,42,5,586.6899080276489,None,1,0.3144371509552002,586.6899080276489,None,587.1057698726654,None,588.1051158905029,588.4577078819275,588.1051158905029,588.4577078819275,587.1057698726654,None,587.1057698726654,None,587.1057698726654,None,350,350,0,3,540.6756401062012,438.6148452758789,right,589.9773008823395,None,cecilia_pilot,icub,clamp,2021_Dec_17_1104,exp,2021.2.3,59.96677332372562,
right,go,1,0,1,0,7,1,43,3,590.4848849773407,None,1,0.5785369873046875,590.4848849773407,None,591.1542708873749,None,592.1759889125824,592.5438568592072,592.1759889125824,592.5438568592072,591.1542708873749,None,591.1542708873749,None,591.1542708873749,None,-1,-1,1,3,489.1219139099121,558.8347911834717,right,594.08069896698,None,cecilia_pilot,icub,clamp,2021_Dec_17_1104,exp,2021.2.3,59.96677332372562,
right,go,1,0,1,0,7,2,44,3,594.5924599170685,None,1,0.2317061424255371,594.5924599170685,None,594.9470708370209,None,595.9503879547119,596.2845900058746,595.9503879547119,596.2845900058746,594.9470708370209,None,594.9470708370209,None,594.9470708370209,None,-1,-1,1,3,236.39583587646484,505.85365295410156,right,597.579647064209,None,cecilia_pilot,icub,clamp,2021_Dec_17_1104,exp,2021.2.3,59.96677332372562,
right,go,1,0,1,0,7,3,45,4,598.089026927948,None,1,0.39002013206481934,598.089026927948,None,598.5696778297424,None,599.6005380153656,599.9576029777527,599.6005380153656,599.9576029777527,598.5696778297424,None,598.5696778297424,None,598.5696778297424,None,-1,-1,1,3,298.19226264953613,556.4334392547607,right,601.3040628433228,None,cecilia_pilot,icub,clamp,2021_Dec_17_1104,exp,2021.2.3,59.96677332372562,
right,go,1,0,1,0,7,4,46,4,601.8206629753113,None,1,0.40859198570251465,601.8206629753113,None,602.3044970035553,None,603.3285129070282,603.6822729110718,603.3285129070282,603.6822729110718,602.3044970035553,None,602.3044970035553,None,602.3044970035553,None,-1,-1,1,3,345.7324504852295,638.404130935669,right,605.1574189662933,None,cecilia_pilot,icub,clamp,2021_Dec_17_1104,exp,2021.2.3,59.96677332372562,
left,go,1,0,1,0,7,5,47,1,605.6587610244751,None,1,0.27717089653015137,605.6587610244751,None,606.0166070461273,None,607.01056599617,607.3773028850555,607.01056599617,607.3773028850555,606.0166070461273,None,606.0166070461273,None,606.0166070461273,None,-1,-1,1,3,407.1321487426758,492.9986000061035,left,608.8063888549805,None,cecilia_pilot,icub,clamp,2021_Dec_17_1104,exp,2021.2.3,59.96677332372562,
left,go,1,0,1,0,8,0,48,1,609.3162889480591,None,1,0.38036108016967773,609.3162889480591,None,609.7978558540344,None,610.8024039268494,611.1535470485687,610.8024039268494,611.1535470485687,609.7978558540344,None,609.7978558540344,None,609.7978558540344,None,-1,-1,1,3,94.8340892791748,635.1268291473389,left,612.4083578586578,None,cecilia_pilot,icub,clamp,2021_Dec_17_1104,exp,2021.2.3,59.96677332372562,
right,go,1,0,1,0,8,1,49,3,612.9318268299103,None,1,0.310711145401001,612.9318268299103,None,613.3489789962769,None,614.3578128814697,614.7148020267487,614.3578128814697,614.7148020267487,613.3489789962769,None,613.3489789962769,None,613.3489789962769,None,-1,-1,1,3,288.9549732208252,597.1822738647461,right,616.1332669258118,None,cecilia_pilot,icub,clamp,2021_Dec_17_1104,exp,2021.2.3,59.96677332372562,
right,go,1,0,1,0,8,2,50,3,616.6347188949585,None,1,0.24609708786010742,616.6347188949585,None,616.9917650222778,None,618.0163898468018,618.368381023407,618.0163898468018,618.368381023407,616.9917650222778,None,616.9917650222778,None,616.9917650222778,None,-1,-1,1,3,379.622220993042,452.6083469390869,right,619.7125608921051,None,cecilia_pilot,icub,clamp,2021_Dec_17_1104,exp,2021.2.3,59.96677332372562,
right,go,1,0,1,0,8,3,51,3,620.2207188606262,None,1,0.21898198127746582,620.2207188606262,None,620.5151669979095,None,621.5387330055237,621.9061598777771,621.5387330055237,621.9061598777771,620.5151669979095,None,620.5151669979095,None,620.5151669979095,None,-1,-1,1,3,396.70848846435547,341.3519859313965,right,623.1344170570374,None,cecilia_pilot,icub,clamp,2021_Dec_17_1104,exp,2021.2.3,59.96677332372562,
left,go,1,0,1,0,8,4,52,1,623.6347630023956,None,1,0.40201401710510254,623.6347630023956,None,624.1171979904175,None,625.1456370353699,625.5016210079193,625.1456370353699,625.5016210079193,624.1171979904175,None,624.1171979904175,None,624.1171979904175,None,-1,-1,1,3,427.9203414916992,366.9300079345703,left,626.8182590007782,None,cecilia_pilot,icub,clamp,2021_Dec_17_1104,exp,2021.2.3,59.96677332372562,
right,go,1,0,1,0,8,5,53,3,627.3507289886475,None,1,0.2707970142364502,627.3507289886475,None,627.7070908546448,None,628.7415249347687,629.0956678390503,628.7415249347687,629.0956678390503,627.7070908546448,None,627.7070908546448,None,627.7070908546448,None,-1,-1,1,3,306.5521717071533,427.46758460998535,right,630.311145067215,None,cecilia_pilot,icub,clamp,2021_Dec_17_1104,exp,2021.2.3,59.96677332372562,
right,go,1,0,1,0,9,0,54,4,630.8234260082245,None,1,0.35906386375427246,630.8234260082245,None,631.306382894516,None,632.3163659572601,632.6711828708649,632.3163659572601,632.6711828708649,631.306382894516,None,631.306382894516,None,631.306382894516,None,-1,-1,1,3,410.51411628723145,317.1865940093994,right,633.9303438663483,None,cecilia_pilot,icub,clamp,2021_Dec_17_1104,exp,2021.2.3,59.96677332372562,
left,go,1,0,1,0,9,1,55,0,634.4571619033813,None,1,0.4027101993560791,634.4571619033813,None,634.9402549266815,None,635.9596290588379,636.3178279399872,635.9596290588379,636.3178279399872,634.9402549266815,None,634.9402549266815,None,634.9402549266815,None,-1,-1,1,3,197.59511947631836,355.313777923584,left,637.3812429904938,None,cecilia_pilot,icub,clamp,2021_Dec_17_1104,exp,2021.2.3,59.96677332372562,
left,go,1,0,1,0,9,2,56,1,637.9051258563995,None,1,0.45470190048217773,637.9051258563995,None,638.4505429267883,None,639.4593510627747,639.824511051178,639.4593510627747,639.824511051178,638.4505429267883,None,638.4505429267883,None,638.4505429267883,None,-1,-1,1,3,303.45988273620605,441.3306713104248,left,641.1002118587494,None,cecilia_pilot,icub,clamp,2021_Dec_17_1104,exp,2021.2.3,59.96677332372562,
left,go,1,0,1,0,9,3,57,0,641.6072368621826,None,1,0.43079590797424316,641.6072368621826,None,642.1484620571136,None,643.145810842514,643.4940299987793,643.145810842514,643.4940299987793,642.1484620571136,None,642.1484620571136,None,642.1484620571136,None,-1,-1,1,3,309.8917007446289,397.2775936126709,left,644.7324230670929,None,cecilia_pilot,icub,clamp,2021_Dec_17_1104,exp,2021.2.3,59.96677332372562,
left,go,1,0,1,0,9,4,58,1,645.2399010658264,None,1,0.34764695167541504,645.2399010658264,None,645.7154538631439,None,646.7461500167847,647.092845916748,646.7461500167847,647.092845916748,645.7154538631439,None,645.7154538631439,None,645.7154538631439,None,-1,-1,1,3,233.37197303771973,370.3451156616211,left,648.2001638412476,None,cecilia_pilot,icub,clamp,2021_Dec_17_1104,exp,2021.2.3,59.96677332372562,
right,go,1,0,1,0,9,5,59,4,648.7013850212097,None,1,0.3162400722503662,648.7013850212097,None,649.1173989772797,None,650.1131958961487,650.456130027771,650.1131958961487,650.456130027771,649.1173989772797,None,649.1173989772797,None,649.1173989772797,None,-1,-1,1,3,361.6502285003662,322.56317138671875,right,651.6978878974915,None,cecilia_pilot,icub,clamp,2021_Dec_17_1104,exp,2021.2.3,59.96677332372562,
right,stop,1,0,1,0,10,0,60,5,652.2127070426941,None,1,0.34979701042175293,652.2127070426941,None,652.6910929679871,None,653.7095439434052,654.0741879940033,653.7095439434052,654.0741879940033,652.6910929679871,None,652.6910929679871,None,652.6910929679871,None,350,300,0,3,375.58650970458984,359.26246643066406,right,655.3404848575592,None,cecilia_pilot,icub,clamp,2021_Dec_17_1104,exp,2021.2.3,59.96677332372562,
left,go,1,0,1,0,10,1,61,0,655.8512518405914,None,1,0.5036349296569824,655.8512518405914,None,656.4556219577789,None,657.4667479991913,657.8142478466034,657.4667479991913,657.8142478466034,656.4556219577789,None,656.4556219577789,None,656.4556219577789,None,-1,-1,1,3,463.27853202819824,418.1802272796631,left,659.252063035965,None,cecilia_pilot,icub,clamp,2021_Dec_17_1104,exp,2021.2.3,59.96677332372562,
left,stop,1,0,1,0,10,2,62,2,659.783362865448,None,1,0.3372159004211426,659.783362865448,None,660.2010018825531,None,661.1919560432434,661.5499179363251,661.1919560432434,661.5499179363251,660.2010018825531,None,660.2010018825531,None,660.2010018825531,None,350,250,0,3,353.29270362854004,384.1860294342041,left,662.8252308368683,None,cecilia_pilot,icub,clamp,2021_Dec_17_1104,exp,2021.2.3,59.96677332372562,
right,stop,1,0,1,0,10,3,63,5,663.3467669487,None,1,0.738785982131958,663.3467669487,None,664.2017629146576,None,665.203330039978,665.5605728626251,665.203330039978,665.5605728626251,664.2017629146576,None,664.2017629146576,None,664.2017629146576,None,300,250,0,3,396.09599113464355,393.33653450012207,right,666.8827538490295,None,cecilia_pilot,icub,clamp,2021_Dec_17_1104,exp,2021.2.3,59.96677332372562,
right,go,1,0,1,0,10,4,64,3,667.4103870391846,None,1,1.0753369331359863,667.4103870391846,None,668.5712189674377,None,669.6011879444122,669.9493958950043,669.6011879444122,669.9493958950043,668.5712189674377,None,668.5712189674377,None,668.5712189674377,None,-1,-1,1,3,549.8895645141602,504.5051574707031,right,671.5281150341034,None,cecilia_pilot,icub,clamp,2021_Dec_17_1104,exp,2021.2.3,59.96677332372562,
right,go,1,0,1,0,10,5,65,3,672.028862953186,None,1,0.3177669048309326,672.028862953186,None,672.4371829032898,None,673.4335260391235,673.7973289489746,673.4335260391235,673.7973289489746,672.4371829032898,None,672.4371829032898,None,672.4371829032898,None,-1,-1,1,3,291.1396026611328,448.1985569000244,right,675.0553500652313,None,cecilia_pilot,icub,clamp,2021_Dec_17_1104,exp,2021.2.3,59.96677332372562,
right,go,1,0,1,0,11,0,66,4,675.5728900432587,None,1,0.3658449649810791,675.5728900432587,None,676.0398700237274,None,677.0412259101868,677.3908259868622,677.0412259101868,677.3908259868622,676.0398700237274,None,676.0398700237274,None,676.0398700237274,None,-1,-1,1,3,400.8016586303711,290.18545150756836,right,678.6463949680328,None,cecilia_pilot,icub,clamp,2021_Dec_17_1104,exp,2021.2.3,59.96677332372562,
left,stop,1,0,1,0,11,1,67,2,679.1631438732147,None,1,0.49517393112182617,679.1631438732147,None,679.763386964798,None,680.7651228904724,681.1260578632355,680.7651228904724,681.1260578632355,679.763386964798,None,679.763386964798,None,679.763386964798,None,300,200,0,3,294.50488090515137,395.111083984375,left,682.3476359844208,None,cecilia_pilot,icub,clamp,2021_Dec_17_1104,exp,2021.2.3,59.96677332372562,
left,go,1,0,1,0,11,2,68,1,682.8485460281372,None,1,1.8299469947814941,682.8485460281372,None,684.754075050354,None,685.7683880329132,686.1202068328857,685.7683880329132,686.1202068328857,684.754075050354,None,684.754075050354,None,684.754075050354,None,-1,-1,1,3,521.510124206543,473.9375114440918,left,687.6400029659271,None,cecilia_pilot,icub,clamp,2021_Dec_17_1104,exp,2021.2.3,59.96677332372562,
left,stop,1,0,1,0,11,3,69,2,688.1605958938599,None,1,0.45105600357055664,688.1605958938599,None,688.7024369239807,None,689.6996178627014,690.0493528842926,689.6996178627014,690.0493528842926,688.7024369239807,None,688.7024369239807,None,688.7024369239807,None,250,200,1,3,395.4932689666748,-1.0,-1,693.9686658382416,None,cecilia_pilot,icub,clamp,2021_Dec_17_1104,exp,2021.2.3,59.96677332372562,
left,stop,1,0,1,0,11,4,70,2,694.5011119842529,None,1,0.6437199115753174,694.5011119842529,None,695.2369329929352,None,696.218178987503,696.5670590400696,696.218178987503,696.5670590400696,695.2369329929352,None,695.2369329929352,None,695.2369329929352,None,300,200,1,3,551.8338680267334,-1.0,-1,700.6539149284363,None,cecilia_pilot,icub,clamp,2021_Dec_17_1104,exp,2021.2.3,59.96677332372562,
left,stop,1,0,1,0,11,5,71,2,701.1871719360352,None,1,0.5586111545562744,701.1871719360352,None,701.8624658584595,None,702.845577955246,703.1933879852295,702.845577955246,703.1933879852295,701.8624658584595,None,701.8624658584595,None,701.8624658584595,None,350,200,0,3,925.055742263794,324.291467666626,left,704.9811449050903,None,cecilia_pilot,icub,clamp,2021_Dec_17_1104,exp,2021.2.3,59.96677332372562,
right,stop,1,0,1,0,12,0,72,5,705.4764029979706,None,1,1.051635980606079,705.4764029979706,None,706.6386959552765,None,707.6331489086151,707.9844210147858,707.6331489086151,707.9844210147858,706.6386959552765,None,706.6386959552765,None,706.6386959552765,None,300,200,1,3,493.78180503845215,-1.0,-1,712.0401120185852,None,cecilia_pilot,icub,clamp,2021_Dec_17_1104,exp,2021.2.3,59.96677332372562,
left,go,1,0,1,0,12,1,73,1,712.5348148345947,None,1,0.5181269645690918,712.5348148345947,None,713.1470630168915,None,714.1284790039062,714.4798898696899,714.1284790039062,714.4798898696899,713.1470630168915,None,713.1470630168915,None,713.1470630168915,None,-1,-1,1,3,258.9995861053467,429.98385429382324,left,715.702241897583,None,cecilia_pilot,icub,clamp,2021_Dec_17_1104,exp,2021.2.3,59.96677332372562,
right,stop,1,0,1,0,12,2,74,5,716.2128188610077,None,1,0.434567928314209,716.2128188610077,None,716.7548639774323,None,717.7793469429016,718.128830909729,717.7793469429016,718.128830909729,716.7548639774323,None,716.7548639774323,None,716.7548639774323,None,300,250,0,3,352.9341220855713,402.58288383483887,right,719.4199180603027,None,cecilia_pilot,icub,clamp,2021_Dec_17_1104,exp,2021.2.3,59.96677332372562,
left,stop,1,0,1,0,12,3,75,2,719.9144549369812,None,1,1.0767199993133545,719.9144549369812,None,721.0766308307648,None,722.0892329216003,722.4412620067596,722.0892329216003,722.4412620067596,721.0766308307648,None,721.0766308307648,None,721.0766308307648,None,300,200,0,3,667.4807071685791,425.58908462524414,left,724.0608818531036,None,cecilia_pilot,icub,clamp,2021_Dec_17_1104,exp,2021.2.3,59.96677332372562,
left,go,1,0,1,0,12,4,76,1,724.575080871582,None,1,0.6824078559875488,724.575080871582,None,725.3669078350067,None,726.3763809204102,726.7328410148621,726.3763809204102,726.7328410148621,725.3669078350067,None,725.3669078350067,None,725.3669078350067,None,-1,-1,1,3,475.4796028137207,511.2583637237549,left,728.2519629001617,None,cecilia_pilot,icub,clamp,2021_Dec_17_1104,exp,2021.2.3,59.96677332372562,
left,stop,1,0,1,0,12,5,77,2,728.7743179798126,None,1,0.3431839942932129,728.7743179798126,None,729.1931879520416,None,730.2244720458984,730.574462890625,730.2244720458984,730.574462890625,729.1931879520416,None,729.1931879520416,None,729.1931879520416,None,250,200,1,3,491.912841796875,-1.0,-1,734.5580320358276,None,cecilia_pilot,icub,clamp,2021_Dec_17_1104,exp,2021.2.3,59.96677332372562,
right,go,2,0,2,0,0,0,0,4,761.1209318637848,None,1,4.075459003448486,761.1209318637848,None,765.2986228466034,None,766.3209228515625,766.6709599494934,766.3209228515625,766.6709599494934,765.2986228466034,None,765.2986228466034,None,765.2986228466034,None,-1,-1,1,3,276.0775089263916,383.2242488861084,right,767.8509819507599,None,cecilia_pilot,icub,clamp,2021_Dec_17_1104,exp,2021.2.3,59.96677332372562,
right,go,2,0,2,0,0,1,1,4,768.3714618682861,None,1,0.3666539192199707,768.3714618682861,None,768.8525700569153,None,769.8687298297882,770.2244460582733,769.8687298297882,770.2244460582733,768.8525700569153,None,768.8525700569153,None,768.8525700569153,None,,,0,3,-1.0,-1.0,-1,770.6718628406525,None,cecilia_pilot,icub,clamp,2021_Dec_17_1104,exp,2021.2.3,59.96677332372562,
left,go,2,0,2,0,0,2,2,0,771.1640260219574,None,1,0.9299390316009521,771.1640260219574,None,772.2136089801788,None,773.2120299339294,773.5647180080414,773.2120299339294,773.5647180080414,772.2136089801788,None,772.2136089801788,None,772.2136089801788,None,-1,-1,1,3,364.0108108520508,468.3880805969238,left,774.9318180084229,None,cecilia_pilot,icub,clamp,2021_Dec_17_1104,exp,2021.2.3,59.96677332372562,
left,stop,2,0,2,0,0,3,3,2,775.4487898349762,None,1,0.3404121398925781,775.4487898349762,None,775.8698079586029,None,776.8666620254517,777.2062518596649,776.8666620254517,777.2062518596649,775.8698079586029,None,775.8698079586029,None,775.8698079586029,None,300,200,0,3,292.22726821899414,450.3016471862793,left,778.5225310325623,None,cecilia_pilot,icub,clamp,2021_Dec_17_1104,exp,2021.2.3,59.96677332372562,
left,go,2,0,2,0,0,4,4,1,779.0387759208679,None,1,0.6015090942382812,779.0387759208679,None,779.7627120018005,None,780.7918560504913,781.1420650482178,780.7918560504913,781.1420650482178,779.7627120018005,None,779.7627120018005,None,779.7627120018005,None,-1,-1,1,3,386.5349292755127,507.460355758667,left,782.573490858078,None,cecilia_pilot,icub,clamp,2021_Dec_17_1104,exp,2021.2.3,59.96677332372562,
right,stop,2,0,2,0,0,5,5,5,783.075532913208,None,1,0.32002711296081543,783.075532913208,None,783.4964559078217,None,784.5023770332336,784.8573899269104,784.5023770332336,784.8573899269104,783.4964559078217,None,783.4964559078217,None,783.4964559078217,None,250,200,1,3,327.2707462310791,-1.0,-1,788.7126958370209,None,cecilia_pilot,icub,clamp,2021_Dec_17_1104,exp,2021.2.3,59.96677332372562,
left,go,2,0,2,0,1,0,6,1,789.2461659908295,None,1,0.6922650337219238,789.2461659908295,None,790.0431568622589,None,791.044919013977,791.3898708820343,791.044919013977,791.3898708820343,790.0431568622589,None,790.0431568622589,None,790.0431568622589,None,-1,-1,1,3,245.81623077392578,663.2726192474365,left,792.8229138851166,None,cecilia_pilot,icub,clamp,2021_Dec_17_1104,exp,2021.2.3,59.96677332372562,
right,stop,2,0,2,0,1,1,7,5,793.3540709018707,None,1,0.3411390781402588,793.3540709018707,None,793.7754168510437,None,794.8061549663544,795.1634650230408,794.8061549663544,795.1634650230408,793.7754168510437,None,793.7754168510437,None,793.7754168510437,None,250,250,1,3,387.9354000091553,-1.0,-1,799.0392119884491,None,cecilia_pilot,icub,clamp,2021_Dec_17_1104,exp,2021.2.3,59.96677332372562,
right,go,2,0,2,0,1,2,8,4,799.5726239681244,None,1,0.9157629013061523,799.5726239681244,None,800.6184649467468,None,801.607106924057,801.966080904007,801.607106924057,801.966080904007,800.6184649467468,None,800.6184649467468,None,800.6184649467468,None,-1,-1,1,3,379.2855739593506,540.656328201294,right,803.4198360443115,None,cecilia_pilot,icub,clamp,2021_Dec_17_1104,exp,2021.2.3,59.96677332372562,
left,go,2,0,2,0,1,3,9,1,803.946897983551,None,1,0.3489398956298828,803.946897983551,None,804.4248578548431,None,805.446995973587,805.7964608669281,805.446995973587,805.7964608669281,804.4248578548431,None,804.4248578548431,None,804.4248578548431,None,-1,-1,1,3,451.0316848754883,497.3165988922119,left,807.2729589939117,None,cecilia_pilot,icub,clamp,2021_Dec_17_1104,exp,2021.2.3,59.96677332372562,
left,go,2,0,2,0,1,4,10,0,807.7876169681549,None,1,0.3006269931793213,807.7876169681549,None,808.2046010494232,None,809.2027089595795,809.5595459938049,809.2027089595795,809.5595459938049,808.2046010494232,None,808.2046010494232,None,808.2046010494232,None,-1,-1,1,3,401.017427444458,534.6958637237549,left,811.0141718387604,None,cecilia_pilot,icub,clamp,2021_Dec_17_1104,exp,2021.2.3,59.96677332372562,
left,go,2,0,2,0,1,5,11,1,811.5454049110413,None,1,0.27554798126220703,811.5454049110413,None,811.9063818454742,None,812.8992619514465,813.2480518817902,812.8992619514465,813.2480518817902,811.9063818454742,None,811.9063818454742,None,811.9063818454742,None,-1,-1,1,3,426.1188507080078,422.5804805755615,left,814.6573388576508,None,cecilia_pilot,icub,clamp,2021_Dec_17_1104,exp,2021.2.3,59.96677332372562,
right,stop,2,0,2,0,2,0,12,5,815.1752479076385,None,1,0.3317141532897949,815.1752479076385,None,815.5975320339203,None,816.6189370155334,816.9397048950195,816.6189370155334,816.9397048950195,815.5975320339203,None,815.5975320339203,None,815.5975320339203,None,250,300,0,3,436.30170822143555,445.0204372406006,right,818.3464438915253,None,cecilia_pilot,icub,clamp,2021_Dec_17_1104,exp,2021.2.3,59.96677332372562,
right,go,2,0,2,0,2,1,13,4,818.8682968616486,None,1,0.7778308391571045,818.8682968616486,None,819.7215709686279,None,820.7557408809662,821.1222679615021,820.7557408809662,821.1222679615021,819.7215709686279,None,819.7215709686279,None,819.7215709686279,None,-1,-1,1,3,401.60655975341797,549.7629642486572,right,822.567932844162,None,cecilia_pilot,icub,clamp,2021_Dec_17_1104,exp,2021.2.3,59.96677332372562,
right,go,2,0,2,0,2,2,14,3,823.090008020401,None,1,0.5669219493865967,823.090008020401,None,823.7322669029236,None,824.7647869586945,825.1263699531555,824.7647869586945,825.1263699531555,823.7322669029236,None,823.7322669029236,None,823.7322669029236,None,-1,-1,1,3,351.5903949737549,505.2468776702881,right,826.4912719726562,None,cecilia_pilot,icub,clamp,2021_Dec_17_1104,exp,2021.2.3,59.96677332372562,
right,stop,2,0,2,0,2,3,15,5,826.9988720417023,None,1,0.34330105781555176,826.9988720417023,None,827.4176549911499,None,828.4481248855591,828.8076219558716,828.4481248855591,828.8076219558716,827.4176549911499,None,827.4176549911499,None,827.4176549911499,None,250,250,1,3,281.156063079834,-1.0,-1,832.5796329975128,None,cecilia_pilot,icub,clamp,2021_Dec_17_1104,exp,2021.2.3,59.96677332372562,
right,go,2,0,2,0,2,4,16,3,833.1124179363251,None,1,0.5999250411987305,833.1124179363251,None,833.8491270542145,None,834.8351500034332,835.1900858879089,834.8351500034332,835.1900858879089,833.8491270542145,None,833.8491270542145,None,833.8491270542145,None,-1,-1,1,3,188.53497505187988,400.8779525756836,right,836.3136858940125,None,cecilia_pilot,icub,clamp,2021_Dec_17_1104,exp,2021.2.3,59.96677332372562,
left,go,2,0,2,0,2,5,17,0,836.8297638893127,None,1,0.4370138645172119,836.8297638893127,None,837.3679368495941,None,838.3611788749695,838.7162039279938,838.3611788749695,838.7162039279938,837.3679368495941,None,837.3679368495941,None,837.3679368495941,None,-1,-1,1,3,191.62368774414062,487.20431327819824,left,839.9274659156799,None,cecilia_pilot,icub,clamp,2021_Dec_17_1104,exp,2021.2.3,59.96677332372562,
left,go,2,0,2,0,3,0,18,1,840.4479529857635,None,1,0.5670490264892578,840.4479529857635,None,841.1163909435272,None,842.1478559970856,842.4730439186096,842.1478559970856,842.4730439186096,841.1163909435272,None,841.1163909435272,None,841.1163909435272,None,-1,-1,1,3,260.6487274169922,536.3712310791016,left,843.8034439086914,None,cecilia_pilot,icub,clamp,2021_Dec_17_1104,exp,2021.2.3,59.96677332372562,
left,go,2,0,2,0,3,1,19,0,844.3207080364227,None,1,0.41312599182128906,844.3207080364227,None,844.8495199680328,None,845.845428943634,846.2079079151154,845.845428943634,846.2079079151154,844.8495199680328,None,844.8495199680328,None,844.8495199680328,None,-1,-1,1,3,122.58052825927734,513.7941837310791,left,847.3717658519745,None,cecilia_pilot,icub,clamp,2021_Dec_17_1104,exp,2021.2.3,59.96677332372562,
left,go,2,0,2,0,3,2,20,0,847.884959936142,None,1,0.2879312038421631,847.884959936142,None,848.3000719547272,None,849.3174829483032,849.6681408882141,849.3174829483032,849.6681408882141,848.3000719547272,None,848.3000719547272,None,848.3000719547272,None,-1,-1,1,3,221.16374969482422,610.9650135040283,left,851.0322868824005,None,cecilia_pilot,icub,clamp,2021_Dec_17_1104,exp,2021.2.3,59.96677332372562,
left,go,2,0,2,0,3,3,21,0,851.5406589508057,None,1,0.2998359203338623,851.5406589508057,None,851.9593298435211,None,852.9849820137024,853.3491699695587,852.9849820137024,853.3491699695587,851.9593298435211,None,851.9593298435211,None,851.9593298435211,None,-1,-1,1,3,213.5019302368164,619.0004348754883,left,854.6868689060211,None,cecilia_pilot,icub,clamp,2021_Dec_17_1104,exp,2021.2.3,59.96677332372562,
right,go,2,0,2,0,3,4,22,3,855.2072370052338,None,1,0.34168195724487305,855.2072370052338,None,855.6243379116058,None,856.6231958866119,856.9474160671234,856.6231958866119,856.9474160671234,855.6243379116058,None,855.6243379116058,None,855.6243379116058,None,-1,-1,1,3,267.78411865234375,588.4311199188232,right,858.3710899353027,None,cecilia_pilot,icub,clamp,2021_Dec_17_1104,exp,2021.2.3,59.96677332372562,
right,stop,2,0,2,0,3,5,23,5,858.9066009521484,None,1,0.41326093673706055,858.9066009521484,None,859.4476628303528,None,860.4648108482361,860.8262898921967,860.4648108482361,860.8262898921967,859.4476628303528,None,859.4476628303528,None,859.4476628303528,None,250,300,1,3,329.2102813720703,-1.0,-1,864.6843948364258,None,cecilia_pilot,icub,clamp,2021_Dec_17_1104,exp,2021.2.3,59.96677332372562,
right,go,2,0,2,0,4,0,24,4,865.2153520584106,None,1,0.6167728900909424,865.2153520584106,None,865.9525899887085,None,866.9267559051514,867.2801270484924,866.9267559051514,867.2801270484924,865.9525899887085,None,865.9525899887085,None,865.9525899887085,None,-1,-1,1,3,362.01024055480957,549.4534969329834,right,868.7289519309998,None,cecilia_pilot,icub,clamp,2021_Dec_17_1104,exp,2021.2.3,59.96677332372562,
left,go,2,0,2,0,4,1,25,1,869.242269039154,None,1,0.508558988571167,869.242269039154,None,869.8461968898773,None,870.8439610004425,871.2008039951324,870.8439610004425,871.2008039951324,869.8461968898773,None,869.8461968898773,None,869.8461968898773,None,-1,-1,1,3,254.18496131896973,530.165433883667,left,872.518786907196,None,cecilia_pilot,icub,clamp,2021_Dec_17_1104,exp,2021.2.3,59.96677332372562,
left,go,2,0,2,0,4,2,26,0,873.0475249290466,None,1,0.6235051155090332,873.0475249290466,None,873.7767109870911,None,874.7933080196381,875.160101890564,874.7933080196381,875.160101890564,873.7767109870911,None,873.7767109870911,None,873.7767109870911,None,-1,-1,1,3,473.0672836303711,464.6155834197998,left,876.5876848697662,None,cecilia_pilot,icub,clamp,2021_Dec_17_1104,exp,2021.2.3,59.96677332372562,
right,go,2,0,2,0,4,3,27,4,877.0934100151062,None,1,0.30913209915161133,877.0934100151062,None,877.51136302948,None,878.5102188587189,878.8641610145569,878.5102188587189,878.8641610145569,877.51136302948,None,877.51136302948,None,877.51136302948,None,-1,-1,1,3,344.2223072052002,548.241376876831,right,880.2880039215088,None,cecilia_pilot,icub,clamp,2021_Dec_17_1104,exp,2021.2.3,59.96677332372562,
right,go,2,0,2,0,4,4,28,3,880.8008558750153,None,1,0.4139699935913086,880.8008558750153,None,881.33931183815,None,882.365651845932,882.7170898914337,882.365651845932,882.7170898914337,881.33931183815,None,881.33931183815,None,881.33931183815,None,-1,-1,1,3,332.16309547424316,601.6299724578857,right,884.1769740581512,None,cecilia_pilot,icub,clamp,2021_Dec_17_1104,exp,2021.2.3,59.96677332372562,
right,stop,2,0,2,0,4,5,29,5,884.6870648860931,None,1,0.3837261199951172,884.6870648860931,None,885.171345949173,None,886.1745970249176,886.5316400527954,886.1745970249176,886.5316400527954,885.171345949173,None,885.171345949173,None,885.171345949173,None,250,350,0,3,358.0279350280762,484.4999313354492,right,887.900964975357,None,cecilia_pilot,icub,clamp,2021_Dec_17_1104,exp,2021.2.3,59.96677332372562,
right,go,2,0,2,0,5,0,30,4,888.4146108627319,None,1,0.7081940174102783,888.4146108627319,None,889.2031650543213,None,890.2289729118347,890.58198595047,890.2289729118347,890.58198595047,889.2031650543213,None,889.2031650543213,None,889.2031650543213,None,-1,-1,1,3,373.61645698547363,506.4244270324707,right,891.9581129550934,None,cecilia_pilot,icub,clamp,2021_Dec_17_1104,exp,2021.2.3,59.96677332372562,
right,stop,2,0,2,0,5,1,31,5,892.4709188938141,None,1,0.4836559295654297,892.4709188938141,None,893.0726890563965,None,894.0847408771515,894.4122889041901,894.0847408771515,894.4122889041901,893.0726890563965,None,893.0726890563965,None,893.0726890563965,None,250,300,1,3,317.9893493652344,-1.0,-1,898.2971279621124,None,cecilia_pilot,icub,clamp,2021_Dec_17_1104,exp,2021.2.3,59.96677332372562,
right,go,2,0,2,0,5,2,32,3,898.8278398513794,None,1,0.5261318683624268,898.8278398513794,None,899.4404380321503,None,900.4521389007568,900.7976260185242,900.4521389007568,900.7976260185242,899.4404380321503,None,899.4404380321503,None,899.4404380321503,None,-1,-1,1,3,365.9634590148926,490.4673099517822,right,902.1799058914185,None,cecilia_pilot,icub,clamp,2021_Dec_17_1104,exp,2021.2.3,59.96677332372562,
right,go,2,0,2,0,5,3,33,3,902.7158930301666,None,1,0.3668098449707031,902.7158930301666,None,903.1943988800049,None,904.1930270195007,904.5446338653564,904.1930270195007,904.5446338653564,903.1943988800049,None,903.1943988800049,None,903.1943988800049,None,-1,-1,1,3,242.0809268951416,568.42041015625,right,905.8777089118958,None,cecilia_pilot,icub,clamp,2021_Dec_17_1104,exp,2021.2.3,59.96677332372562,
left,stop,2,0,2,0,5,4,34,2,906.385812997818,None,1,0.34369707107543945,906.385812997818,None,906.8050060272217,None,907.8026418685913,908.1590528488159,907.8026418685913,908.1590528488159,906.8050060272217,None,906.8050060272217,None,906.8050060272217,None,250,350,1,3,361.13667488098145,-1.0,-1,912.0401389598846,None,cecilia_pilot,icub,clamp,2021_Dec_17_1104,exp,2021.2.3,59.96677332372562,
right,stop,2,0,2,0,5,5,35,5,912.5719389915466,None,1,0.4449911117553711,912.5719389915466,None,913.1224229335785,None,914.1348659992218,914.4957509040833,914.1348659992218,914.4957509040833,913.1224229335785,None,913.1224229335785,None,913.1224229335785,None,300,350,0,3,403.17440032958984,408.3099365234375,right,915.8282208442688,None,cecilia_pilot,icub,clamp,2021_Dec_17_1104,exp,2021.2.3,59.96677332372562,
left,stop,2,0,2,0,6,0,36,2,916.3248150348663,None,1,0.7376110553741455,916.3248150348663,None,917.1741600036621,None,918.1845090389252,918.5361168384552,918.1845090389252,918.5361168384552,917.1741600036621,None,917.1741600036621,None,917.1741600036621,None,300,300,1,3,434.7989559173584,-1.0,-1,922.5008568763733,None,cecilia_pilot,icub,clamp,2021_Dec_17_1104,exp,2021.2.3,59.96677332372562,
right,go,2,0,2,0,6,1,37,4,922.9951899051666,None,1,0.5377171039581299,922.9951899051666,None,923.6699039936066,None,924.6497828960419,925.0109159946442,924.6497828960419,925.0109159946442,923.6699039936066,None,923.6699039936066,None,923.6699039936066,None,-1,-1,1,3,331.0697078704834,504.11248207092285,right,926.3799748420715,None,cecilia_pilot,icub,clamp,2021_Dec_17_1104,exp,2021.2.3,59.96677332372562,
left,stop,2,0,2,0,6,2,38,2,926.8827998638153,None,1,0.3628089427947998,926.8827998638153,None,927.3482890129089,None,928.3526239395142,928.7017998695374,928.3526239395142,928.7017998695374,927.3482890129089,None,927.3482890129089,None,927.3482890129089,None,350,300,1,3,397.37462997436523,-1.0,-1,932.633241891861,None,cecilia_pilot,icub,clamp,2021_Dec_17_1104,exp,2021.2.3,59.96677332372562,
right,stop,2,0,2,0,6,3,39,5,933.1651039123535,None,1,0.7667708396911621,933.1651039123535,None,934.0241260528564,None,935.0302278995514,935.3925929069519,935.0302278995514,935.3925929069519,934.0241260528564,None,934.0241260528564,None,934.0241260528564,None,400,300,0,3,546.1668968200684,463.69123458862305,right,936.9355268478394,None,cecilia_pilot,icub,clamp,2021_Dec_17_1104,exp,2021.2.3,59.96677332372562,
left,stop,2,0,2,0,6,4,40,2,937.4415018558502,None,1,0.5808649063110352,937.4415018558502,None,938.1081049442291,None,939.1287858486176,939.4772348403931,939.1287858486176,939.4772348403931,938.1081049442291,None,938.1081049442291,None,938.1081049442291,None,400,250,0,3,398.23293685913086,553.9464950561523,left,940.9520540237427,None,cecilia_pilot,icub,clamp,2021_Dec_17_1104,exp,2021.2.3,59.96677332372562,
right,go,2,0,2,0,6,5,41,3,941.4801700115204,None,1,0.5870969295501709,941.4801700115204,None,942.1476838588715,None,943.1432809829712,943.5116288661957,943.1432809829712,943.5116288661957,942.1476838588715,None,942.1476838588715,None,942.1476838588715,None,-1,-1,1,3,375.02336502075195,631.340503692627,right,945.0558879375458,None,cecilia_pilot,icub,clamp,2021_Dec_17_1104,exp,2021.2.3,59.96677332372562,
right,go,2,0,2,0,7,0,42,3,945.5737199783325,None,1,0.37789106369018555,945.5737199783325,None,946.041307926178,None,947.0331699848175,947.395763874054,947.0331699848175,947.395763874054,946.041307926178,None,946.041307926178,None,946.041307926178,None,-1,-1,1,3,278.2411575317383,591.2501811981201,right,948.7867169380188,None,cecilia_pilot,icub,clamp,2021_Dec_17_1104,exp,2021.2.3,59.96677332372562,
right,go,2,0,2,0,7,1,43,3,949.3099060058594,None,1,0.3745450973510742,949.3099060058594,None,949.791111946106,None,950.7891218662262,951.1367268562317,950.7891218662262,951.1367268562317,949.791111946106,None,949.791111946106,None,949.791111946106,None,-1,-1,1,3,378.82161140441895,602.2567749023438,right,952.6520869731903,None,cecilia_pilot,icub,clamp,2021_Dec_17_1104,exp,2021.2.3,59.96677332372562,
right,go,2,0,2,0,7,2,44,4,953.1498198509216,None,1,0.3137831687927246,953.1498198509216,None,953.558562040329,None,954.5911688804626,954.9509809017181,954.5911688804626,954.9509809017181,953.558562040329,None,953.558562040329,None,953.558562040329,None,-1,-1,1,3,283.2674980163574,627.3260116577148,right,956.352597951889,None,cecilia_pilot,icub,clamp,2021_Dec_17_1104,exp,2021.2.3,59.96677332372562,
left,go,2,0,2,0,7,3,45,1,956.8794269561768,None,1,0.3508930206298828,956.8794269561768,None,957.3585779666901,None,958.3929219245911,958.7453188896179,958.3929219245911,958.7453188896179,957.3585779666901,None,957.3585779666901,None,957.3585779666901,None,-1,-1,1,3,264.33420181274414,589.4100666046143,left,960.1188669204712,None,cecilia_pilot,icub,clamp,2021_Dec_17_1104,exp,2021.2.3,59.96677332372562,
left,stop,2,0,2,0,7,4,46,2,960.6362578868866,None,1,0.2671380043029785,960.6362578868866,None,960.9950678348541,None,961.9990780353546,962.3611619472504,961.9990780353546,962.3611619472504,960.9950678348541,None,960.9950678348541,None,960.9950678348541,None,350,250,1,3,428.5166263580322,-1.0,-1,966.3208220005035,None,cecilia_pilot,icub,clamp,2021_Dec_17_1104,exp,2021.2.3,59.96677332372562,
left,stop,2,0,2,0,7,5,47,2,966.8525960445404,None,1,0.5183079242706299,966.8525960445404,None,967.4652149677277,None,968.448264837265,968.8016259670258,968.448264837265,968.8016259670258,967.4652149677277,None,967.4652149677277,None,967.4652149677277,None,400,250,1,3,395.8566188812256,-1.0,-1,972.7258529663086,None,cecilia_pilot,icub,clamp,2021_Dec_17_1104,exp,2021.2.3,59.96677332372562,
right,stop,2,0,2,0,8,0,48,5,973.2583298683167,None,1,0.4674489498138428,973.2583298683167,None,973.8084428310394,None,974.7901549339294,975.1395299434662,974.7901549339294,975.1395299434662,973.8084428310394,None,973.8084428310394,None,973.8084428310394,None,450,250,1,3,479.0477752685547,-1.0,-1,979.1515588760376,None,cecilia_pilot,icub,clamp,2021_Dec_17_1104,exp,2021.2.3,59.96677332372562,
right,go,2,0,2,0,8,1,49,3,979.683023929596,None,1,0.45169997215270996,979.683023929596,None,980.2336218357086,None,981.211119890213,981.5631849765778,981.211119890213,981.5631849765778,980.2336218357086,None,980.2336218357086,None,980.2336218357086,None,-1,-1,1,3,432.4510097503662,467.3423767089844,right,983.0387279987335,None,cecilia_pilot,icub,clamp,2021_Dec_17_1104,exp,2021.2.3,59.96677332372562,
right,stop,2,0,2,0,8,2,50,5,983.558266878128,None,1,0.3680400848388672,983.558266878128,None,984.0243549346924,None,985.0342538356781,985.3929829597473,985.0342538356781,985.3929829597473,984.0243549346924,None,984.0243549346924,None,984.0243549346924,None,450,300,0,3,388.049840927124,434.99088287353516,right,986.7520430088043,None,cecilia_pilot,icub,clamp,2021_Dec_17_1104,exp,2021.2.3,59.96677332372562,
left,go,2,0,2,0,8,3,51,0,987.2744669914246,None,1,1.1292619705200195,987.2744669914246,None,988.4893350601196,None,989.4805269241333,989.8188359737396,989.4805269241333,989.8188359737396,988.4893350601196,None,988.4893350601196,None,988.4893350601196,None,-1,-1,1,3,482.5880527496338,521.9600200653076,left,991.4035608768463,None,cecilia_pilot,icub,clamp,2021_Dec_17_1104,exp,2021.2.3,59.96677332372562,
right,go,2,0,2,0,8,4,52,3,991.9109230041504,None,1,0.6442539691925049,991.9109230041504,None,992.6407158374786,None,993.6270649433136,993.9719879627228,993.6270649433136,993.9719879627228,992.6407158374786,None,992.6407158374786,None,992.6407158374786,None,-1,-1,1,3,402.8327465057373,518.521785736084,right,995.4669868946075,None,cecilia_pilot,icub,clamp,2021_Dec_17_1104,exp,2021.2.3,59.96677332372562,
left,go,2,0,2,0,8,5,53,1,995.9873239994049,None,1,0.34783101081848145,995.9873239994049,None,996.4623730182648,None,997.491219997406,997.8515820503235,997.491219997406,997.8515820503235,996.4623730182648,None,996.4623730182648,None,996.4623730182648,None,-1,-1,1,3,613.663911819458,394.99616622924805,left,999.3425650596619,None,cecilia_pilot,icub,clamp,2021_Dec_17_1104,exp,2021.2.3,59.96677332372562,
left,go,2,0,2,0,9,0,54,0,999.8473100662231,None,1,0.354097843170166,999.8473100662231,None,1000.3251948356628,None,1001.323812007904,1001.6847288608551,1001.323812007904,1001.6847288608551,1000.3251948356628,None,1000.3251948356628,None,1000.3251948356628,None,-1,-1,1,3,412.63318061828613,585.4089260101318,left,1003.2196278572083,None,cecilia_pilot,icub,clamp,2021_Dec_17_1104,exp,2021.2.3,59.96677332372562,
left,stop,2,0,2,0,9,1,55,2,1003.7369978427887,None,1,0.3619999885559082,1003.7369978427887,None,1004.2183299064636,None,1005.2355089187622,1005.5923759937286,1005.2355089187622,1005.5923759937286,1004.2183299064636,None,1004.2183299064636,None,1004.2183299064636,None,450,250,0,3,271.2380886077881,494.3573474884033,left,1006.8851819038391,None,cecilia_pilot,icub,clamp,2021_Dec_17_1104,exp,2021.2.3,59.96677332372562,
left,go,2,0,2,0,9,2,56,1,1007.3886258602142,None,1,0.839425802230835,1007.3886258602142,None,1008.3035368919373,None,1009.3064370155334,1009.654618024826,1009.3064370155334,1009.654618024826,1008.3035368919373,None,1008.3035368919373,None,1008.3035368919373,None,-1,-1,1,3,580.1656246185303,445.38187980651855,left,1011.2048718929291,None,cecilia_pilot,icub,clamp,2021_Dec_17_1104,exp,2021.2.3,59.96677332372562,
left,go,2,0,2,0,9,3,57,0,1011.7249848842621,None,1,0.4111919403076172,1011.7249848842621,None,1012.2649538516998,None,1013.2606508731842,1013.6208510398865,1013.2606508731842,1013.6208510398865,1012.2649538516998,None,1012.2649538516998,None,1012.2649538516998,None,-1,-1,1,3,310.08219718933105,543.553352355957,left,1015.0058078765869,None,cecilia_pilot,icub,clamp,2021_Dec_17_1104,exp,2021.2.3,59.96677332372562,
left,stop,2,0,2,0,9,4,58,2,1015.5246419906616,None,1,0.33910679817199707,1015.5246419906616,None,1015.9811658859253,None,1016.9907028675079,1017.3413729667664,1016.9907028675079,1017.3413729667664,1015.9811658859253,None,1015.9811658859253,None,1015.9811658859253,None,400,250,0,3,451.0054588317871,499.8908042907715,left,1018.8287949562073,None,cecilia_pilot,icub,clamp,2021_Dec_17_1104,exp,2021.2.3,59.96677332372562,
left,go,2,0,2,0,9,5,59,1,1019.3411240577698,None,1,0.6120479106903076,1019.3411240577698,None,1020.0673599243164,None,1021.0913970470428,1021.4566009044647,1021.0913970470428,1021.4566009044647,1020.0673599243164,None,1020.0673599243164,None,1020.0673599243164,None,-1,-1,1,3,449.19276237487793,466.9179916381836,left,1022.8976850509644,None,cecilia_pilot,icub,clamp,2021_Dec_17_1104,exp,2021.2.3,59.96677332372562,
left,stop,2,0,2,0,10,0,60,2,1023.4142990112305,None,1,0.47388505935668945,1023.4142990112305,None,1024.0118288993835,None,1025.0133390426636,1025.3699538707733,1025.0133390426636,1025.3699538707733,1024.0118288993835,None,1024.0118288993835,None,1024.0118288993835,None,350,250,1,3,357.91873931884766,-1.0,-1,1029.2532029151917,None,cecilia_pilot,icub,clamp,2021_Dec_17_1104,exp,2021.2.3,59.96677332372562,
left,stop,2,0,2,0,10,1,61,2,1029.7843968868256,None,1,0.4690530300140381,1029.7843968868256,None,1030.3355498313904,None,1031.3106088638306,1031.662603855133,1031.3106088638306,1031.662603855133,1030.3355498313904,None,1030.3355498313904,None,1030.3355498313904,None,400,250,1,3,324.48554039001465,-1.0,-1,1035.5576429367065,None,cecilia_pilot,icub,clamp,2021_Dec_17_1104,exp,2021.2.3,59.96677332372562,
right,go,2,0,2,0,10,2,62,4,1036.0887479782104,None,1,0.48571205139160156,1036.0887479782104,None,1036.7019138336182,None,1037.6866109371185,1038.038195848465,1037.6866109371185,1038.038195848465,1036.7019138336182,None,1036.7019138336182,None,1036.7019138336182,None,-1,-1,1,3,232.2402000427246,574.2413997650146,right,1039.377639055252,None,cecilia_pilot,icub,clamp,2021_Dec_17_1104,exp,2021.2.3,59.96677332372562,
right,stop,2,0,2,0,10,3,63,5,1039.9095458984375,None,1,0.3783121109008789,1039.9095458984375,None,1040.3890969753265,None,1041.4220788478851,1041.778116941452,1041.4220788478851,1041.778116941452,1040.3890969753265,None,1040.3890969753265,None,1040.3890969753265,None,450,250,1,3,411.30876541137695,-1.0,-1,1045.6966438293457,None,cecilia_pilot,icub,clamp,2021_Dec_17_1104,exp,2021.2.3,59.96677332372562,
left,stop,2,0,2,0,10,4,64,2,1046.228837966919,None,1,0.5630309581756592,1046.228837966919,None,1046.9044909477234,None,1047.8791649341583,1048.2369379997253,1047.8791649341583,1048.2369379997253,1046.9044909477234,None,1046.9044909477234,None,1046.9044909477234,None,450,300,0,3,509.3555450439453,528.9814472198486,left,1049.841941833496,None,cecilia_pilot,icub,clamp,2021_Dec_17_1104,exp,2021.2.3,59.96677332372562,
left,go,2,0,2,0,10,5,65,1,1050.3524990081787,None,1,94.52488684654236,1050.3524990081787,None,1144.9790120124817,None,1146.0000898838043,1146.347836971283,1146.0000898838043,1146.347836971283,1144.9790120124817,None,1144.9790120124817,None,1144.9790120124817,None,-1,-1,1,3,284.79933738708496,545.8526611328125,left,1147.7145619392395,None,cecilia_pilot,icub,clamp,2021_Dec_17_1104,exp,2021.2.3,59.96677332372562,
right,go,2,0,2,0,11,0,66,3,1148.236927986145,None,1,11.149311065673828,1148.236927986145,None,1159.484710931778,None,1160.511890888214,1160.8715538978577,1160.511890888214,1160.8715538978577,1159.484710931778,None,1159.484710931778,None,1159.484710931778,None,-1,-1,1,3,298.83790016174316,506.2294006347656,right,1162.1831579208374,None,cecilia_pilot,icub,clamp,2021_Dec_17_1104,exp,2021.2.3,59.96677332372562,
right,go,2,0,2,0,11,1,67,4,1162.7013359069824,None,1,0.47956204414367676,1162.7013359069824,None,1163.29940700531,None,1164.3130929470062,1164.6672658920288,1164.3130929470062,1164.6672658920288,1163.29940700531,None,1163.29940700531,None,1163.29940700531,None,-1,-1,1,3,193.12024116516113,543.2343482971191,right,1165.9309349060059,None,cecilia_pilot,icub,clamp,2021_Dec_17_1104,exp,2021.2.3,59.96677332372562,
right,go,2,0,2,0,11,2,68,4,1166.4312200546265,None,1,0.3551809787750244,1166.4312200546265,None,1166.9095129966736,None,1167.9245338439941,1168.2745549678802,1167.9245338439941,1168.2745549678802,1166.9095129966736,None,1166.9095129966736,None,1166.9095129966736,None,-1,-1,1,3,294.893741607666,491.4116859436035,right,1169.5688910484314,None,cecilia_pilot,icub,clamp,2021_Dec_17_1104,exp,2021.2.3,59.96677332372562,
left,go,2,0,2,0,11,3,69,0,1170.0695610046387,None,1,0.39234399795532227,1170.0695610046387,None,1170.5475599765778,None,1171.5755288600922,1171.9218380451202,1171.5755288600922,1171.9218380451202,1170.5475599765778,None,1170.5475599765778,None,1170.5475599765778,None,-1,-1,1,3,228.41358184814453,456.1119079589844,left,1173.1358449459076,None,cecilia_pilot,icub,clamp,2021_Dec_17_1104,exp,2021.2.3,59.96677332372562,
left,go,2,0,2,0,11,4,70,0,1173.6630380153656,None,1,0.6094400882720947,1173.6630380153656,None,1174.3882179260254,None,1175.3852689266205,1175.7250289916992,1175.3852689266205,1175.7250289916992,1174.3882179260254,None,1174.3882179260254,None,1174.3882179260254,None,-1,-1,1,3,308.51292610168457,558.2437515258789,left,1177.1580078601837,None,cecilia_pilot,icub,clamp,2021_Dec_17_1104,exp,2021.2.3,59.96677332372562,
right,go,2,0,2,0,11,5,71,4,1177.6749138832092,None,1,0.3415648937225342,1177.6749138832092,None,1178.1342339515686,None,1179.1330790519714,1179.4876420497894,1179.1330790519714,1179.4876420497894,1178.1342339515686,None,1178.1342339515686,None,1178.1342339515686,None,-1,-1,1,3,80.95145225524902,562.5112056732178,right,1180.6558158397675,None,cecilia_pilot,icub,clamp,2021_Dec_17_1104,exp,2021.2.3,59.96677332372562,
left,go,2,0,2,0,12,0,72,0,1181.1556658744812,None,1,0.45647692680358887,1181.1556658744812,None,1181.6979360580444,None,1182.7169280052185,1183.0523309707642,1182.7169280052185,1183.0523309707642,1181.6979360580444,None,1181.6979360580444,None,1181.6979360580444,None,-1,-1,1,3,261.4450454711914,523.1320858001709,left,1184.386178970337,None,cecilia_pilot,icub,clamp,2021_Dec_17_1104,exp,2021.2.3,59.96677332372562,
right,stop,2,0,2,0,12,1,73,5,1184.921145915985,None,1,0.39092397689819336,1184.921145915985,None,1185.4030990600586,None,1186.4074869155884,1186.7633700370789,1186.4074869155884,1186.7633700370789,1185.4030990600586,None,1185.4030990600586,None,1185.4030990600586,None,400,300,1,3,653.4161567687988,-1.0,-1,1190.9443008899689,None,cecilia_pilot,icub,clamp,2021_Dec_17_1104,exp,2021.2.3,59.96677332372562,
right,go,2,0,2,0,12,2,74,3,1191.4776420593262,None,1,0.5792500972747803,1191.4776420593262,None,1192.153205871582,None,1193.136885881424,1193.4919209480286,1193.136885881424,1193.4919209480286,1192.153205871582,None,1192.153205871582,None,1192.153205871582,None,-1,-1,1,3,374.8934268951416,585.1502418518066,right,1194.9843440055847,None,cecilia_pilot,icub,clamp,2021_Dec_17_1104,exp,2021.2.3,59.96677332372562,
left,stop,2,0,2,0,12,3,75,2,1195.4981410503387,None,1,0.41835904121398926,1195.4981410503387,None,1196.040638923645,None,1197.0599918365479,1197.3958928585052,1197.0599918365479,1197.3958928585052,1196.040638923645,None,1196.040638923645,None,1196.040638923645,None,400,350,0,3,395.48635482788086,554.6958446502686,left,1198.8774518966675,None,cecilia_pilot,icub,clamp,2021_Dec_17_1104,exp,2021.2.3,59.96677332372562,
left,go,2,0,2,0,12,4,76,1,1199.3959760665894,None,1,0.7851011753082275,1199.3959760665894,None,1200.2613039016724,None,1201.2651069164276,1201.6200759410858,1201.2651069164276,1201.6200759410858,1200.2613039016724,None,1200.2613039016724,None,1200.2613039016724,None,-1,-1,1,3,369.42172050476074,645.927906036377,left,1203.1729040145874,None,cecilia_pilot,icub,clamp,2021_Dec_17_1104,exp,2021.2.3,59.96677332372562,
left,go,2,0,2,0,12,5,77,1,1203.6870348453522,None,1,0.4742279052734375,1203.6870348453522,None,1204.2895159721375,None,1205.3241238594055,1205.6795868873596,1205.3241238594055,1205.6795868873596,1204.2895159721375,None,1204.2895159721375,None,1204.2895159721375,None,-1,-1,1,3,382.02834129333496,627.7461051940918,left,1207.1728019714355,None,cecilia_pilot,icub,clamp,2021_Dec_17_1104,exp,2021.2.3,59.96677332372562,
left,go,3,0,3,0,0,0,0,0,1221.5242609977722,None,1,109.56158804893494,1221.5242609977722,None,1331.1665680408478,None,1332.1578888893127,1332.5217599868774,1332.1578888893127,1332.5217599868774,1331.1665680408478,None,1331.1665680408478,None,1331.1665680408478,None,-1,-1,1,3,329.36549186706543,461.30895614624023,left,1333.8403298854828,None,cecilia_pilot,icub,clamp,2021_Dec_17_1104,exp,2021.2.3,59.96677332372562,
right,go,3,0,3,0,0,1,1,3,1334.3402440547943,None,1,0.5534219741821289,1334.3402440547943,None,1335.009379863739,None,1336.0021278858185,1336.358883857727,1336.0021278858185,1336.358883857727,1335.009379863739,None,1335.009379863739,None,1335.009379863739,None,-1,-1,1,3,305.142879486084,520.7679271697998,right,1337.7172529697418,None,cecilia_pilot,icub,clamp,2021_Dec_17_1104,exp,2021.2.3,59.96677332372562,
right,go,3,0,3,0,0,2,2,4,1338.2487988471985,None,1,0.43711090087890625,1338.2487988471985,None,1338.792032957077,None,1339.8025870323181,1340.1628639698029,1339.8025870323181,1340.1628639698029,1338.792032957077,None,1338.792032957077,None,1338.792032957077,None,,,0,3,3000.4138946533203,-1.0,-1,1343.7014360427856,None,cecilia_pilot,icub,clamp,2021_Dec_17_1104,exp,2021.2.3,59.96677332372562,
left,go,3,0,3,0,0,3,3,0,1344.196261882782,None,1,1.1174101829528809,1344.196261882782,None,1345.4203660488129,None,1346.4252300262451,1346.7736389636993,1346.4252300262451,1346.7736389636993,1345.4203660488129,None,1345.4203660488129,None,1345.4203660488129,None,-1,-1,1,3,483.2165241241455,442.9969787597656,left,1348.2263720035553,None,cecilia_pilot,icub,clamp,2021_Dec_17_1104,exp,2021.2.3,59.96677332372562,
left,go,3,0,3,0,0,4,4,1,1348.7441959381104,None,1,0.45557498931884766,1348.7441959381104,None,1349.2904720306396,None,1350.3000559806824,1350.6670310497284,1350.3000559806824,1350.6670310497284,1349.2904720306396,None,1349.2904720306396,None,1349.2904720306396,None,-1,-1,1,3,492.9811954498291,513.159990310669,left,1352.2021079063416,None,cecilia_pilot,icub,clamp,2021_Dec_17_1104,exp,2021.2.3,59.96677332372562,
left,go,3,0,3,0,0,5,5,0,1352.7233259677887,None,1,0.40529298782348633,1352.7233259677887,None,1353.261610031128,None,1354.2739889621735,1354.6271998882294,1354.2739889621735,1354.6271998882294,1353.261610031128,None,1353.261610031128,None,1353.261610031128,None,-1,-1,1,3,491.5661811828613,508.3117485046387,left,1356.163321018219,None,cecilia_pilot,icub,clamp,2021_Dec_17_1104,exp,2021.2.3,59.96677332372562,
left,stop,3,0,3,0,1,0,6,2,1356.6844148635864,None,1,0.5003979206085205,1356.6844148635864,None,1357.2852330207825,None,1358.2924900054932,1358.6411068439484,1358.2924900054932,1358.6411068439484,1357.2852330207825,None,1357.2852330207825,None,1357.2852330207825,None,350,350,0,3,496.0811138153076,499.76038932800293,left,1360.1762218475342,None,cecilia_pilot,icub,clamp,2021_Dec_17_1104,exp,2021.2.3,59.96677332372562,
left,go,3,0,3,0,1,1,7,0,1360.672644853592,None,1,0.9410247802734375,1360.672644853592,None,1361.7082300186157,None,1362.7401609420776,1363.097764968872,1362.7401609420776,1363.097764968872,1361.7082300186157,None,1361.7082300186157,None,1361.7082300186157,None,-1,-1,1,3,448.12726974487305,660.5746746063232,left,1364.6936719417572,None,cecilia_pilot,icub,clamp,2021_Dec_17_1104,exp,2021.2.3,59.96677332372562,
right,stop,3,0,3,0,1,2,8,5,1365.1945359706879,None,1,0.3822150230407715,1365.1945359706879,None,1365.6779370307922,None,1366.7014648914337,1367.0623090267181,1366.7014648914337,1367.0623090267181,1365.6779370307922,None,1365.6779370307922,None,1365.6779370307922,None,300,350,1,3,416.3985252380371,-1.0,-1,1370.9695000648499,None,cecilia_pilot,icub,clamp,2021_Dec_17_1104,exp,2021.2.3,59.96677332372562,
right,stop,3,0,3,0,1,3,9,5,1371.5016548633575,None,1,0.43243408203125,1371.5016548633575,None,1372.053526878357,None,1373.0362029075623,1373.3997390270233,1373.0362029075623,1373.3997390270233,1372.053526878357,None,1372.053526878357,None,1372.053526878357,None,300,400,0,3,499.1145133972168,522.9732990264893,right,1374.9514770507812,None,cecilia_pilot,icub,clamp,2021_Dec_17_1104,exp,2021.2.3,59.96677332372562,
