Holder,Action,blocks.thisRepN,blocks.thisTrialN,blocks.thisN,blocks.thisIndex,trials.thisRepN,trials.thisTrialN,trials.thisN,trials.thisIndex,start_msg.started,start_msg.stopped,RespButton_start_trial.keys,RespButton_start_trial.rt,RespButton_start_trial.started,RespButton_start_trial.stopped,GREEN.started,GREEN.stopped,LEFT_RED.started,LEFT_RED.stopped,RIGHT_RED.started,RIGHT_RED.stopped,LEFT_CIRCLE.started,LEFT_CIRCLE.stopped,CENTER_CIRCLE.started,CENTER_CIRCLE.stopped,RIGHT_CIRCLE.started,RIGHT_CIRCLE.stopped,SOUND_DELAY_MS_LEFT,SOUND_DELAY_MS_RIGHT,CORRECT,VALIDITY,RELEASE_TIME,TOUCH_TIME,BOTTLE_RESPONSE_POSITION,text.started,text.stopped,pid,left_position,right_position,date,expName,psychopyVersion,frameRate,
left,go,0,0,0,0,0,0,0,0,69.75737380981445,None,1,23.48887586593628,69.75737380981445,None,93.36659288406372,None,94.37771677970886,94.72816276550293,94.37771677970886,94.72816276550293,93.36659288406372,None,93.36659288406372,None,93.36659288406372,None,-1,-1,1,3,608.9968681335449,583.7171077728271,left,96.45089983940125,None,JPO_pilot,icub,clamp,2021_Dec_17_1550,exp,2021.2.3,59.96102958520668,
right,go,0,0,0,0,0,1,1,4,96.98206496238708,None,1,0.9982361793518066,96.98206496238708,None,98.08066582679749,None,99.1016309261322,99.44443082809448,99.1016309261322,99.44443082809448,98.08066582679749,None,98.08066582679749,None,98.08066582679749,None,-1,-1,1,3,161.16571426391602,683.114767074585,right,100.81200695037842,None,JPO_pilot,icub,clamp,2021_Dec_17_1550,exp,2021.2.3,59.96102958520668,
right,go,0,0,0,0,0,2,2,3,101.33797192573547,None,1,0.7702732086181641,101.33797192573547,None,102.18857097625732,None,103.22033786773682,103.56082391738892,103.22033786773682,103.56082391738892,102.18857097625732,None,102.18857097625732,None,102.18857097625732,None,-1,-1,1,3,587.1455669403076,614.7866249084473,right,105.29538798332214,None,JPO_pilot,icub,clamp,2021_Dec_17_1550,exp,2021.2.3,59.96102958520668,
right,go,0,0,0,0,0,3,3,4,105.80491280555725,None,1,0.7103371620178223,105.80491280555725,None,106.59564280509949,None,107.61481785774231,107.95404386520386,107.61481785774231,107.95404386520386,106.59564280509949,None,106.59564280509949,None,106.59564280509949,None,-1,-1,1,3,503.08942794799805,664.8354530334473,right,109.6487078666687,None,JPO_pilot,icub,clamp,2021_Dec_17_1550,exp,2021.2.3,59.96102958520668,
left,stop,0,0,0,0,0,4,4,2,110.18043899536133,None,1,0.5888299942016602,110.18043899536133,None,110.84971880912781,None,111.85313892364502,112.20740580558777,111.85313892364502,112.20740580558777,110.84971880912781,None,110.84971880912781,None,110.84971880912781,None,500,500,1,3,70.39308547973633,-1.0,-1,115.80749487876892,None,JPO_pilot,icub,clamp,2021_Dec_17_1550,exp,2021.2.3,59.96102958520668,
left,stop,0,0,0,0,0,5,5,2,116.3379909992218,None,1,2.271651029586792,116.3379909992218,None,118.74271178245544,None,119.71867799758911,120.06619787216187,119.71867799758911,120.06619787216187,118.74271178245544,None,118.74271178245544,None,118.74271178245544,None,550,500,1,3,174.40319061279297,-1.0,-1,123.81515789031982,None,JPO_pilot,icub,clamp,2021_Dec_17_1550,exp,2021.2.3,59.96102958520668,
left,go,0,0,0,0,1,0,6,1,124.34542989730835,None,1,0.9223270416259766,124.34542989730835,None,125.38995599746704,None,126.36045694351196,126.72564697265625,126.36045694351196,126.72564697265625,125.38995599746704,None,125.38995599746704,None,125.38995599746704,None,-1,-1,1,3,509.39106941223145,913.5892391204834,left,128.67587876319885,None,JPO_pilot,icub,clamp,2021_Dec_17_1550,exp,2021.2.3,59.96102958520668,
right,stop,0,0,0,0,1,1,7,5,129.19240283966064,None,1,0.826286792755127,129.19240283966064,None,130.10396695137024,None,131.10105776786804,131.45614290237427,131.10105776786804,131.45614290237427,130.10396695137024,None,130.10396695137024,None,130.10396695137024,None,,,0,3,-1.0,-1.0,-1,131.79380893707275,None,JPO_pilot,icub,clamp,2021_Dec_17_1550,exp,2021.2.3,59.96102958520668,
left,go,0,0,0,0,1,2,8,0,132.28662586212158,None,1,2.682934045791626,132.28662586212158,None,135.06124091148376,None,136.07369184494019,136.43615198135376,136.07369184494019,136.43615198135376,135.06124091148376,None,135.06124091148376,None,135.06124091148376,None,-1,-1,1,3,499.814510345459,666.5685176849365,left,138.1361219882965,None,JPO_pilot,icub,clamp,2021_Dec_17_1550,exp,2021.2.3,59.96102958520668,
right,go,0,0,0,0,1,3,9,3,138.65437293052673,None,1,0.9845969676971436,138.65437293052673,None,139.75546884536743,None,140.78263998031616,141.13146090507507,140.78263998031616,141.13146090507507,139.75546884536743,None,139.75546884536743,None,139.75546884536743,None,-1,-1,1,3,153.20444107055664,1184.2029094696045,right,142.98062181472778,None,JPO_pilot,icub,clamp,2021_Dec_17_1550,exp,2021.2.3,59.96102958520668,
right,go,0,0,0,0,1,4,10,3,143.49338293075562,None,1,0.5729479789733887,143.49338293075562,None,144.1585338115692,None,145.18660497665405,145.53542184829712,145.18660497665405,145.53542184829712,144.1585338115692,None,144.1585338115692,None,144.1585338115692,None,-1,-1,1,3,579.4656276702881,593.0240154266357,right,147.22412991523743,None,JPO_pilot,icub,clamp,2021_Dec_17_1550,exp,2021.2.3,59.96102958520668,
left,go,0,0,0,0,1,5,11,0,147.72381591796875,None,1,0.763477087020874,147.72381591796875,None,148.5679168701172,None,149.58766794204712,149.93777298927307,149.58766794204712,149.93777298927307,148.5679168701172,None,148.5679168701172,None,148.5679168701172,None,-1,-1,1,3,58.367013931274414,766.6411399841309,left,151.28135776519775,None,JPO_pilot,icub,clamp,2021_Dec_17_1550,exp,2021.2.3,59.96102958520668,
right,go,0,0,0,0,2,0,12,3,151.78557181358337,None,1,0.885573148727417,151.78557181358337,None,152.7515778541565,None,153.74668288230896,154.10507583618164,153.74668288230896,154.10507583618164,152.7515778541565,None,152.7515778541565,None,152.7515778541565,None,-1,-1,1,3,174.95322227478027,708.7624073028564,right,155.51301884651184,None,JPO_pilot,icub,clamp,2021_Dec_17_1550,exp,2021.2.3,59.96102958520668,
left,go,0,0,0,0,2,1,13,0,156.03323888778687,None,1,0.733773946762085,156.03323888778687,None,156.86909794807434,None,157.86548686027527,158.2280468940735,157.86548686027527,158.2280468940735,156.86909794807434,None,156.86909794807434,None,156.86909794807434,None,-1,-1,1,3,520.6341743469238,660.022497177124,left,159.9257938861847,None,JPO_pilot,icub,clamp,2021_Dec_17_1550,exp,2021.2.3,59.96102958520668,
left,go,0,0,0,0,2,2,14,1,160.4272599220276,None,1,0.8418881893157959,160.4272599220276,None,161.39666080474854,None,162.39552283287048,162.7490417957306,162.39552283287048,162.7490417957306,161.39666080474854,None,161.39666080474854,None,161.39666080474854,None,-1,-1,1,3,479.0349006652832,651.7543792724609,left,164.40796995162964,None,JPO_pilot,icub,clamp,2021_Dec_17_1550,exp,2021.2.3,59.96102958520668,
left,stop,0,0,0,0,2,3,15,2,164.9165427684784,None,1,0.6873910427093506,164.9165427684784,None,165.70521092414856,None,166.73047590255737,167.08558678627014,166.73047590255737,167.08558678627014,165.70521092414856,None,165.70521092414856,None,165.70521092414856,None,600,500,0,3,435.7571601867676,611.6905212402344,left,168.6689419746399,None,JPO_pilot,icub,clamp,2021_Dec_17_1550,exp,2021.2.3,59.96102958520668,
right,stop,0,0,0,0,2,4,16,5,169.1900498867035,None,1,1.1020431518554688,169.1900498867035,None,170.4120078086853,None,171.40430283546448,171.72918486595154,171.40430283546448,171.72918486595154,170.4120078086853,None,170.4120078086853,None,170.4120078086853,None,550,500,0,3,625.1184940338135,616.6932582855225,right,173.53668189048767,None,JPO_pilot,icub,clamp,2021_Dec_17_1550,exp,2021.2.3,59.96102958520668,
right,go,0,0,0,0,2,5,17,4,174.0469388961792,None,1,0.8820981979370117,174.0469388961792,None,175.02465081214905,None,176.04330396652222,176.41312289237976,176.04330396652222,176.41312289237976,175.02465081214905,None,175.02465081214905,None,175.02465081214905,None,-1,-1,1,3,608.0129146575928,754.5950412750244,right,178.28702878952026,None,JPO_pilot,icub,clamp,2021_Dec_17_1550,exp,2021.2.3,59.96102958520668,
right,stop,0,0,0,0,3,0,18,5,178.79946994781494,None,1,0.650547981262207,178.79946994781494,None,179.53087186813354,None,180.53282380104065,180.87038683891296,180.53282380104065,180.87038683891296,179.53087186813354,None,179.53087186813354,None,179.53087186813354,None,550,450,1,3,463.7324810028076,-1.0,-1,184.8603057861328,None,JPO_pilot,icub,clamp,2021_Dec_17_1550,exp,2021.2.3,59.96102958520668,
right,go,0,0,0,0,3,1,19,3,185.39144897460938,None,1,0.8169441223144531,185.39144897460938,None,186.31276297569275,None,187.3162019252777,187.66779088974,187.3162019252777,187.66779088974,186.31276297569275,None,186.31276297569275,None,186.31276297569275,None,-1,-1,1,3,191.04909896850586,990.8978939056396,right,189.38102984428406,None,JPO_pilot,icub,clamp,2021_Dec_17_1550,exp,2021.2.3,59.96102958520668,
left,go,0,0,0,0,3,2,20,1,189.9010238647461,None,1,1.2277731895446777,189.9010238647461,None,191.23827695846558,None,192.26892185211182,192.61991691589355,192.26892185211182,192.61991691589355,191.23827695846558,None,191.23827695846558,None,191.23827695846558,None,-1,-1,1,3,507.72571563720703,840.4648303985596,left,194.49278497695923,None,JPO_pilot,icub,clamp,2021_Dec_17_1550,exp,2021.2.3,59.96102958520668,
right,go,0,0,0,0,3,3,21,4,195.0249729156494,None,1,0.8981411457061768,195.0249729156494,None,196.00351285934448,None,196.98855185508728,197.3432388305664,196.98855185508728,197.3432388305664,196.00351285934448,None,196.00351285934448,None,196.00351285934448,None,-1,-1,1,3,338.9105796813965,696.2332725524902,right,198.9407079219818,None,JPO_pilot,icub,clamp,2021_Dec_17_1550,exp,2021.2.3,59.96102958520668,
left,stop,0,0,0,0,3,4,22,2,199.45097279548645,None,1,0.7910418510437012,199.45097279548645,None,200.36741399765015,None,201.38137888908386,201.73898696899414,201.38137888908386,201.73898696899414,200.36741399765015,None,200.36741399765015,None,200.36741399765015,None,550,500,1,3,722.1169471740723,-1.0,-1,205.98757481575012,None,JPO_pilot,icub,clamp,2021_Dec_17_1550,exp,2021.2.3,59.96102958520668,
right,stop,0,0,0,0,3,5,23,5,206.51950788497925,None,1,1.0348191261291504,206.51950788497925,None,207.69000697135925,None,208.669912815094,209.02912497520447,208.669912815094,209.02912497520447,207.69000697135925,None,207.69000697135925,None,207.69000697135925,None,600,500,1,3,484.3401908874512,-1.0,-1,213.04532980918884,None,JPO_pilot,icub,clamp,2021_Dec_17_1550,exp,2021.2.3,59.96102958520668,
left,go,0,0,0,0,4,0,24,0,213.57710099220276,None,1,0.7352030277252197,213.57710099220276,None,214.43809294700623,None,215.41367197036743,215.77123284339905,215.41367197036743,215.77123284339905,214.43809294700623,None,214.43809294700623,None,214.43809294700623,None,-1,-1,1,3,501.8281936645508,649.0950584411621,left,217.4534158706665,None,JPO_pilot,icub,clamp,2021_Dec_17_1550,exp,2021.2.3,59.96102958520668,
left,go,0,0,0,0,4,1,25,1,217.98817777633667,None,1,0.9025528430938721,217.98817777633667,None,218.96614289283752,None,219.95950984954834,220.31730890274048,219.95950984954834,220.31730890274048,218.96614289283752,None,218.96614289283752,None,218.96614289283752,None,-1,-1,1,3,565.8872127532959,803.0383586883545,left,222.2168447971344,None,JPO_pilot,icub,clamp,2021_Dec_17_1550,exp,2021.2.3,59.96102958520668,
left,go,0,0,0,0,4,2,26,0,222.7233579158783,None,1,1.0667109489440918,222.7233579158783,None,223.88587880134583,None,224.87031197547913,225.22415590286255,224.87031197547913,225.22415590286255,223.88587880134583,None,223.88587880134583,None,223.88587880134583,None,-1,-1,1,3,464.1766548156738,1008.0416202545166,left,227.22941899299622,None,JPO_pilot,icub,clamp,2021_Dec_17_1550,exp,2021.2.3,59.96102958520668,
right,stop,0,0,0,0,4,3,27,5,227.76138186454773,None,1,0.8288829326629639,227.76138186454773,None,228.72265076637268,None,229.71539187431335,230.07217478752136,229.71539187431335,230.07217478752136,228.72265076637268,None,228.72265076637268,None,228.72265076637268,None,600,550,0,3,514.3072605133057,639.0771865844727,right,231.7633137702942,None,JPO_pilot,icub,clamp,2021_Dec_17_1550,exp,2021.2.3,59.96102958520668,
right,go,0,0,0,0,4,4,28,4,232.28743076324463,None,1,2.258236885070801,232.28743076324463,None,234.67835187911987,None,235.71265077590942,236.06627583503723,235.71265077590942,236.06627583503723,234.67835187911987,None,234.67835187911987,None,234.67835187911987,None,-1,-1,1,3,474.87616539001465,938.6186599731445,right,237.97236895561218,None,JPO_pilot,icub,clamp,2021_Dec_17_1550,exp,2021.2.3,59.96102958520668,
right,go,0,0,0,0,4,5,29,3,238.4684338569641,None,1,0.7915868759155273,238.4684338569641,None,239.38071489334106,None,240.3695478439331,240.7300488948822,240.3695478439331,240.7300488948822,239.38071489334106,None,239.38071489334106,None,239.38071489334106,None,-1,-1,1,3,486.9656562805176,689.3420219421387,right,242.43871092796326,None,JPO_pilot,icub,clamp,2021_Dec_17_1550,exp,2021.2.3,59.96102958520668,
left,stop,0,0,0,0,5,0,30,2,242.95188188552856,None,1,1.1962110996246338,242.95188188552856,None,244.2390239238739,None,245.25423383712769,245.60281682014465,245.25423383712769,245.60281682014465,244.2390239238739,None,244.2390239238739,None,244.2390239238739,None,600,500,0,3,569.4973468780518,748.9471435546875,left,247.45082092285156,None,JPO_pilot,icub,clamp,2021_Dec_17_1550,exp,2021.2.3,59.96102958520668,
left,go,0,0,0,0,5,1,31,0,247.9679889678955,None,1,1.635901927947998,247.9679889678955,None,249.6842257976532,None,250.6972918510437,251.04895186424255,250.6972918510437,251.04895186424255,249.6842257976532,None,249.6842257976532,None,249.6842257976532,None,-1,-1,1,3,638.2448673248291,1135.1349353790283,left,253.3495008945465,None,JPO_pilot,icub,clamp,2021_Dec_17_1550,exp,2021.2.3,59.96102958520668,
left,go,0,0,0,0,5,2,32,1,253.85098886489868,None,1,1.1288070678710938,253.85098886489868,None,255.06966876983643,None,256.0735647678375,256.4343538284302,256.0735647678375,256.4343538284302,255.06966876983643,None,255.06966876983643,None,255.06966876983643,None,-1,-1,1,3,679.602861404419,905.4911136627197,left,258.54998779296875,None,JPO_pilot,icub,clamp,2021_Dec_17_1550,exp,2021.2.3,59.96102958520668,
left,go,0,0,0,0,5,3,33,1,259.067174911499,None,1,1.2665200233459473,259.067174911499,None,260.4620249271393,None,261.49008297920227,261.83730697631836,261.49008297920227,261.83730697631836,260.4620249271393,None,260.4620249271393,None,260.4620249271393,None,-1,-1,1,3,692.9600238800049,1080.5442333221436,left,264.11632084846497,None,JPO_pilot,icub,clamp,2021_Dec_17_1550,exp,2021.2.3,59.96102958520668,
right,go,0,0,0,0,5,4,34,4,264.6313338279724,None,1,1.691810131072998,264.6313338279724,None,266.4087779521942,None,267.429575920105,267.7559988498688,267.429575920105,267.7559988498688,266.4087779521942,None,266.4087779521942,None,266.4087779521942,None,-1,-1,1,3,912.996768951416,707.216739654541,right,269.90542697906494,None,JPO_pilot,icub,clamp,2021_Dec_17_1550,exp,2021.2.3,59.96102958520668,
left,go,0,0,0,0,5,5,35,0,270.41621589660645,None,1,1.034775972366333,270.41621589660645,None,271.5744459629059,None,272.5697479248047,272.9209039211273,272.5697479248047,272.9209039211273,271.5744459629059,None,271.5744459629059,None,271.5744459629059,None,-1,-1,1,3,578.7498950958252,898.2594013214111,left,274.9585587978363,None,JPO_pilot,icub,clamp,2021_Dec_17_1550,exp,2021.2.3,59.96102958520668,
right,go,0,0,0,0,6,0,36,3,275.4685847759247,None,1,1.1921229362487793,275.4685847759247,None,276.75102281570435,None,277.7447929382324,278.0949618816376,277.7447929382324,278.0949618816376,276.75102281570435,None,276.75102281570435,None,276.75102281570435,None,-1,-1,1,3,677.4020195007324,1184.8266124725342,right,280.5144999027252,None,JPO_pilot,icub,clamp,2021_Dec_17_1550,exp,2021.2.3,59.96102958520668,
left,go,0,0,0,0,6,1,37,1,281.01516699790955,None,1,0.6339399814605713,281.01516699790955,None,281.74426889419556,None,282.7577979564667,283.100350856781,282.7577979564667,283.100350856781,281.74426889419556,None,281.74426889419556,None,281.74426889419556,None,-1,-1,1,3,565.330982208252,846.7988967895508,left,285.03104281425476,None,JPO_pilot,icub,clamp,2021_Dec_17_1550,exp,2021.2.3,59.96102958520668,
right,go,0,0,0,0,6,2,38,3,285.5636839866638,None,1,1.0061159133911133,285.5636839866638,None,286.66543984413147,None,287.6782829761505,288.0318899154663,287.6782829761505,288.0318899154663,286.66543984413147,None,286.66543984413147,None,286.66543984413147,None,-1,-1,1,3,478.15513610839844,884.3932151794434,right,289.9170939922333,None,JPO_pilot,icub,clamp,2021_Dec_17_1550,exp,2021.2.3,59.96102958520668,
right,go,0,0,0,0,6,3,39,4,290.45421385765076,None,1,1.1082417964935303,290.45421385765076,None,291.6742708683014,None,292.70851588249207,293.06594586372375,292.70851588249207,293.06594586372375,291.6742708683014,None,291.6742708683014,None,291.6742708683014,None,-1,-1,1,3,530.5647850036621,1020.3678607940674,right,295.10486698150635,None,JPO_pilot,icub,clamp,2021_Dec_17_1550,exp,2021.2.3,59.96102958520668,
right,go,0,0,0,0,6,4,40,3,295.62975096702576,None,1,0.9198529720306396,295.62975096702576,None,296.6653218269348,None,297.68294882774353,298.0333368778229,297.68294882774353,298.0333368778229,296.6653218269348,None,296.6653218269348,None,296.6653218269348,None,-1,-1,1,3,606.1298847198486,684.3297481536865,right,299.85632491111755,None,JPO_pilot,icub,clamp,2021_Dec_17_1550,exp,2021.2.3,59.96102958520668,
left,go,0,0,0,0,6,5,41,1,300.3606379032135,None,1,0.9899520874023438,300.3606379032135,None,301.4611117839813,None,302.4653477668762,302.8041889667511,302.4653477668762,302.8041889667511,301.4611117839813,None,301.4611117839813,None,301.4611117839813,None,-1,-1,1,3,469.3570137023926,1056.250810623169,left,304.8873088359833,None,JPO_pilot,icub,clamp,2021_Dec_17_1550,exp,2021.2.3,59.96102958520668,
left,go,0,0,0,0,7,0,42,0,305.4154019355774,None,1,0.883685827255249,305.4154019355774,None,306.38441276550293,None,307.3907709121704,307.7221179008484,307.3907709121704,307.7221179008484,306.38441276550293,None,306.38441276550293,None,306.38441276550293,None,-1,-1,1,3,556.7708015441895,1174.9236583709717,left,309.9993817806244,None,JPO_pilot,icub,clamp,2021_Dec_17_1550,exp,2021.2.3,59.96102958520668,
right,go,0,0,0,0,7,1,43,4,310.5021507740021,None,1,1.0323338508605957,310.5021507740021,None,311.6583228111267,None,312.67531180381775,313.03016686439514,312.67531180381775,313.03016686439514,311.6583228111267,None,311.6583228111267,None,311.6583228111267,None,-1,-1,1,3,526.9515514373779,935.6069564819336,right,315.01239490509033,None,JPO_pilot,icub,clamp,2021_Dec_17_1550,exp,2021.2.3,59.96102958520668,
right,go,0,0,0,0,7,2,44,4,315.518602848053,None,1,0.9704298973083496,315.518602848053,None,316.61519598960876,None,317.6233217716217,317.98894596099854,317.6233217716217,317.98894596099854,316.61519598960876,None,316.61519598960876,None,316.61519598960876,None,-1,-1,1,3,812.1325969696045,894.5913314819336,right,320.223445892334,None,JPO_pilot,icub,clamp,2021_Dec_17_1550,exp,2021.2.3,59.96102958520668,
right,stop,0,0,0,0,7,3,45,5,320.7332458496094,None,1,1.1297881603240967,320.7332458496094,None,321.95842599868774,None,322.9736588001251,323.33370876312256,322.9736588001251,323.33370876312256,321.95842599868774,None,321.95842599868774,None,321.95842599868774,None,550,500,1,3,539.5760536193848,-1.0,-1,327.40246391296387,None,JPO_pilot,icub,clamp,2021_Dec_17_1550,exp,2021.2.3,59.96102958520668,
right,go,0,0,0,0,7,4,46,3,327.9338438510895,None,1,0.8150780200958252,327.9338438510895,None,328.8546907901764,None,329.8287558555603,330.1928639411926,329.8287558555603,330.1928639411926,328.8546907901764,None,328.8546907901764,None,328.8546907901764,None,-1,-1,1,3,837.3394012451172,986.6788387298584,right,332.5809669494629,None,JPO_pilot,icub,clamp,2021_Dec_17_1550,exp,2021.2.3,59.96102958520668,
left,stop,0,0,0,0,7,5,47,2,333.09912300109863,None,1,0.8703820705413818,333.09912300109863,None,334.0738708972931,None,335.082044839859,335.42436480522156,335.082044839859,335.42436480522156,334.0738708972931,None,334.0738708972931,None,334.0738708972931,None,550,550,1,3,654.5231342315674,-1.0,-1,339.6115598678589,None,JPO_pilot,icub,clamp,2021_Dec_17_1550,exp,2021.2.3,59.96102958520668,
left,stop,0,0,0,0,8,0,48,2,340.14444184303284,None,1,0.7073061466217041,340.14444184303284,None,340.9433329105377,None,341.9245867729187,342.2687089443207,341.9245867729187,342.2687089443207,340.9433329105377,None,340.9433329105377,None,340.9433329105377,None,600,550,1,3,901.5538692474365,-1.0,-1,346.7420358657837,None,JPO_pilot,icub,clamp,2021_Dec_17_1550,exp,2021.2.3,59.96102958520668,
right,stop,0,0,0,0,8,1,49,5,347.27285981178284,None,1,0.6330370903015137,347.27285981178284,None,348.0077509880066,None,349.0170738697052,349.36985898017883,349.0170738697052,349.36985898017883,348.0077509880066,None,348.0077509880066,None,348.0077509880066,None,650,550,1,3,564.5298957824707,-1.0,-1,353.4649918079376,None,JPO_pilot,icub,clamp,2021_Dec_17_1550,exp,2021.2.3,59.96102958520668,
right,go,0,0,0,0,8,2,50,4,353.9962828159332,None,1,0.028560161590576172,353.9962828159332,None,354.11422395706177,None,355.0937879085541,355.4444317817688,355.0937879085541,355.4444317817688,354.11422395706177,None,354.11422395706177,None,354.11422395706177,None,-1,-1,1,3,496.14715576171875,1075.2050876617432,right,357.56489396095276,None,JPO_pilot,icub,clamp,2021_Dec_17_1550,exp,2021.2.3,59.96102958520668,
left,go,0,0,0,0,8,3,51,0,358.09281277656555,None,1,0.695214033126831,358.09281277656555,None,358.86763978004456,None,359.87117099761963,360.1973788738251,359.87117099761963,360.1973788738251,358.86763978004456,None,358.86763978004456,None,358.86763978004456,None,-1,-1,1,3,596.4541435241699,992.2032356262207,left,362.35688877105713,None,JPO_pilot,icub,clamp,2021_Dec_17_1550,exp,2021.2.3,59.96102958520668,
right,go,0,0,0,0,8,4,52,4,362.8671729564667,None,1,1.1031160354614258,362.8671729564667,None,364.09053778648376,None,365.0945928096771,365.456316947937,365.0945928096771,365.456316947937,364.09053778648376,None,364.09053778648376,None,364.09053778648376,None,-1,-1,1,3,1682.7161312103271,596.7552661895752,right,368.26916790008545,None,JPO_pilot,icub,clamp,2021_Dec_17_1550,exp,2021.2.3,59.96102958520668,
left,stop,0,0,0,0,8,5,53,2,368.78130078315735,None,1,1.183168888092041,368.78130078315735,None,370.06510496139526,None,371.09505796432495,371.442697763443,371.09505796432495,371.442697763443,370.06510496139526,None,370.06510496139526,None,370.06510496139526,None,650,600,0,3,549.0748882293701,798.3441352844238,left,373.3155288696289,None,JPO_pilot,icub,clamp,2021_Dec_17_1550,exp,2021.2.3,59.96102958520668,
right,stop,0,0,0,0,9,0,54,5,373.82842779159546,None,1,1.8568849563598633,373.82842779159546,None,375.7897799015045,None,376.79825592041016,377.1479458808899,376.79825592041016,377.1479458808899,375.7897799015045,None,375.7897799015045,None,375.7897799015045,None,600,600,1,3,569.1144466400146,-1.0,-1,381.24181389808655,None,JPO_pilot,icub,clamp,2021_Dec_17_1550,exp,2021.2.3,59.96102958520668,
left,go,0,0,0,0,9,1,55,1,381.73660683631897,None,1,3.028095006942749,381.73660683631897,None,384.8957509994507,None,385.86431980133057,386.2145907878876,385.86431980133057,386.2145907878876,384.8957509994507,None,384.8957509994507,None,384.8957509994507,None,-1,-1,1,3,1480.3829193115234,763.9946937561035,left,389.03113889694214,None,JPO_pilot,icub,clamp,2021_Dec_17_1550,exp,2021.2.3,59.96102958520668,
right,stop,0,0,0,0,9,2,56,5,389.54442977905273,None,1,0.8745300769805908,389.54442977905273,None,390.52085185050964,None,391.5431728363037,391.90324783325195,391.5431728363037,391.90324783325195,390.52085185050964,None,390.52085185050964,None,390.52085185050964,None,600,650,1,3,433.0263137817383,-1.0,-1,395.8260188102722,None,JPO_pilot,icub,clamp,2021_Dec_17_1550,exp,2021.2.3,59.96102958520668,
left,stop,0,0,0,0,9,3,57,2,396.35737681388855,None,1,0.6262388229370117,396.35737681388855,None,397.09333395957947,None,398.07198691368103,398.4255518913269,398.07198691368103,398.4255518913269,397.09333395957947,None,397.09333395957947,None,397.09333395957947,None,600,700,0,3,558.3217144012451,789.825439453125,left,400.30993390083313,None,JPO_pilot,icub,clamp,2021_Dec_17_1550,exp,2021.2.3,59.96102958520668,
right,go,0,0,0,0,9,4,58,3,400.8168897628784,None,1,1.6033530235290527,400.8168897628784,None,402.5210349559784,None,403.5194728374481,403.875688791275,403.5194728374481,403.875688791275,402.5210349559784,None,402.5210349559784,None,402.5210349559784,None,-1,-1,1,3,861.5522384643555,1101.470708847046,right,406.3726258277893,None,JPO_pilot,icub,clamp,2021_Dec_17_1550,exp,2021.2.3,59.96102958520668,
left,stop,0,0,0,0,9,5,59,2,406.8813798427582,None,1,0.7849409580230713,406.8813798427582,None,407.794371843338,None,408.79445791244507,409.15339493751526,408.79445791244507,409.15339493751526,407.794371843338,None,407.794371843338,None,407.794371843338,None,550,700,1,3,761.6870403289795,-1.0,-1,413.44533586502075,None,JPO_pilot,icub,clamp,2021_Dec_17_1550,exp,2021.2.3,59.96102958520668,
right,go,0,0,0,0,10,0,60,4,413.97714591026306,None,1,0.32239818572998047,413.97714591026306,None,414.405072927475,None,415.3874578475952,415.7432949542999,415.3874578475952,415.7432949542999,414.405072927475,None,414.405072927475,None,414.405072927475,None,-1,-1,1,3,907.0227146148682,934.7002506256104,right,418.11918091773987,None,JPO_pilot,icub,clamp,2021_Dec_17_1550,exp,2021.2.3,59.96102958520668,
left,go,0,0,0,0,10,1,61,0,418.6332838535309,None,1,0.7708308696746826,418.6332838535309,None,419.48434591293335,None,420.5172188282013,420.8563599586487,420.5172188282013,420.8563599586487,419.48434591293335,None,419.48434591293335,None,419.48434591293335,None,-1,-1,1,3,490.6771183013916,998.0835914611816,left,422.86963391304016,None,JPO_pilot,icub,clamp,2021_Dec_17_1550,exp,2021.2.3,59.96102958520668,
left,go,0,0,0,0,10,2,62,1,423.38851284980774,None,1,0.7687110900878906,423.38851284980774,None,424.2376379966736,None,425.2695789337158,425.6093077659607,425.2695789337158,425.6093077659607,424.2376379966736,None,424.2376379966736,None,424.2376379966736,None,-1,-1,1,3,711.3964557647705,826.6174793243408,left,427.6671447753906,None,JPO_pilot,icub,clamp,2021_Dec_17_1550,exp,2021.2.3,59.96102958520668,
right,go,0,0,0,0,10,3,63,3,428.18072295188904,None,1,1.7746620178222656,428.18072295188904,None,430.0751099586487,None,431.0990869998932,431.4529929161072,431.0990869998932,431.4529929161072,430.0751099586487,None,430.0751099586487,None,430.0751099586487,None,-1,-1,1,3,133.85820388793945,1022.5472450256348,right,433.1344039440155,None,JPO_pilot,icub,clamp,2021_Dec_17_1550,exp,2021.2.3,59.96102958520668,
left,go,0,0,0,0,10,4,64,0,433.6368157863617,None,1,1.1977598667144775,433.6368157863617,None,434.9202518463135,None,435.91438388824463,436.27773094177246,435.91438388824463,436.27773094177246,434.9202518463135,None,434.9202518463135,None,434.9202518463135,None,-1,-1,1,3,388.86427879333496,853.1849384307861,left,438.0496208667755,None,JPO_pilot,icub,clamp,2021_Dec_17_1550,exp,2021.2.3,59.96102958520668,
right,stop,0,0,0,0,10,5,65,5,438.5825958251953,None,1,0.9764389991760254,438.5825958251953,None,439.678377866745,None,440.6807539463043,441.0380368232727,440.6807539463043,441.0380368232727,439.678377866745,None,439.678377866745,None,439.678377866745,None,600,700,1,3,267.90380477905273,-1.0,-1,444.8252229690552,None,JPO_pilot,icub,clamp,2021_Dec_17_1550,exp,2021.2.3,59.96102958520668,
left,go,0,0,0,0,11,0,66,1,445.35774087905884,None,1,0.5877609252929688,445.35774087905884,None,446.032860994339,None,447.00341796875,447.3283188343048,447.00341796875,447.3283188343048,446.032860994339,None,446.032860994339,None,446.032860994339,None,-1,-1,1,3,536.0491275787354,1255.8622360229492,left,449.72607684135437,None,JPO_pilot,icub,clamp,2021_Dec_17_1550,exp,2021.2.3,59.96102958520668,
left,go,0,0,0,0,11,1,67,1,450.2525599002838,None,1,0.6429061889648438,450.2525599002838,None,450.97452688217163,None,451.9879479408264,452.32328486442566,451.9879479408264,452.32328486442566,450.97452688217163,None,450.97452688217163,None,450.97452688217163,None,-1,-1,1,3,313.5342597961426,1088.740348815918,left,454.28953099250793,None,JPO_pilot,icub,clamp,2021_Dec_17_1550,exp,2021.2.3,59.96102958520668,
left,stop,0,0,0,0,11,2,68,2,454.81590485572815,None,1,1.359179973602295,454.81590485572815,None,456.2858099937439,None,457.3030569553375,457.6550347805023,457.3030569553375,457.6550347805023,456.2858099937439,None,456.2858099937439,None,456.2858099937439,None,600,750,1,3,547.8990077972412,-1.0,-1,461.7346079349518,None,JPO_pilot,icub,clamp,2021_Dec_17_1550,exp,2021.2.3,59.96102958520668,
right,go,0,0,0,0,11,3,69,3,462.2665228843689,None,1,0.38590121269226074,462.2665228843689,None,462.7548189163208,None,463.7369318008423,464.07071185112,463.7369318008423,464.07071185112,462.7548189163208,None,462.7548189163208,None,462.7548189163208,None,-1,-1,1,3,362.61701583862305,1279.56223487854,right,466.28659892082214,None,JPO_pilot,icub,clamp,2021_Dec_17_1550,exp,2021.2.3,59.96102958520668,
right,stop,0,0,0,0,11,4,70,5,466.8033308982849,None,1,1.0477221012115479,466.8033308982849,None,467.9646348953247,None,468.95474576950073,469.3047778606415,468.95474576950073,469.3047778606415,467.9646348953247,None,467.9646348953247,None,467.9646348953247,None,650,750,1,3,419.8751449584961,-1.0,-1,473.2610619068146,None,JPO_pilot,icub,clamp,2021_Dec_17_1550,exp,2021.2.3,59.96102958520668,
left,go,0,0,0,0,11,5,71,0,473.7950677871704,None,1,0.34522390365600586,473.7950677871704,None,474.22300481796265,None,475.1994149684906,475.5482339859009,475.1994149684906,475.5482339859009,474.22300481796265,None,474.22300481796265,None,474.22300481796265,None,-1,-1,1,3,512.2742652893066,1020.5225944519043,left,477.6521739959717,None,JPO_pilot,icub,clamp,2021_Dec_17_1550,exp,2021.2.3,59.96102958520668,
left,go,0,0,0,0,12,0,72,1,478.15315794944763,None,1,0.9048290252685547,478.15315794944763,None,479.18666076660156,None,480.2072479724884,480.54618787765503,480.2072479724884,480.54618787765503,479.18666076660156,None,479.18666076660156,None,479.18666076660156,None,-1,-1,1,3,462.74495124816895,1115.7422065734863,left,482.6486039161682,None,JPO_pilot,icub,clamp,2021_Dec_17_1550,exp,2021.2.3,59.96102958520668,
left,stop,0,0,0,0,12,1,73,2,483.15891790390015,None,1,0.9120888710021973,483.15891790390015,None,484.1943287849426,None,485.21118092536926,485.58211398124695,485.21118092536926,485.58211398124695,484.1943287849426,None,484.1943287849426,None,484.1943287849426,None,650,800,1,3,415.79341888427734,-1.0,-1,489.48949694633484,None,JPO_pilot,icub,clamp,2021_Dec_17_1550,exp,2021.2.3,59.96102958520668,
right,stop,0,0,0,0,12,2,74,5,490.02102994918823,None,1,0.29828310012817383,490.02102994918823,None,490.4473638534546,None,491.43313097953796,491.79511189460754,491.43313097953796,491.79511189460754,490.4473638534546,None,490.4473638534546,None,490.4473638534546,None,700,800,0,3,547.7609634399414,1076.8742561340332,right,493.9336907863617,None,JPO_pilot,icub,clamp,2021_Dec_17_1550,exp,2021.2.3,59.96102958520668,
right,stop,0,0,0,0,12,3,75,5,494.4513649940491,None,1,0.9409780502319336,494.4513649940491,None,495.49305391311646,None,496.4949607849121,496.8166699409485,496.4949607849121,496.8166699409485,495.49305391311646,None,495.49305391311646,None,495.49305391311646,None,700,750,1,3,434.50236320495605,-1.0,-1,500.82966589927673,None,JPO_pilot,icub,clamp,2021_Dec_17_1550,exp,2021.2.3,59.96102958520668,
left,stop,0,0,0,0,12,4,76,2,501.32482385635376,None,1,0.5157577991485596,501.32482385635376,None,501.9371349811554,None,502.90839982032776,503.23929595947266,502.90839982032776,503.23929595947266,501.9371349811554,None,501.9371349811554,None,501.9371349811554,None,700,800,1,3,432.6763153076172,-1.0,-1,507.23517394065857,None,JPO_pilot,icub,clamp,2021_Dec_17_1550,exp,2021.2.3,59.96102958520668,
right,go,0,0,0,0,12,5,77,4,507.7662968635559,None,1,0.6759371757507324,507.7662968635559,None,508.56337785720825,None,509.5653669834137,509.92488980293274,509.5653669834137,509.92488980293274,508.56337785720825,None,508.56337785720825,None,508.56337785720825,None,-1,-1,1,3,406.951904296875,947.2877979278564,right,511.8112368583679,None,JPO_pilot,icub,clamp,2021_Dec_17_1550,exp,2021.2.3,59.96102958520668,
left,go,1,0,1,0,0,0,0,1,535.7882378101349,None,1,38.477251052856445,535.7882378101349,None,574.3669929504395,None,575.3993499279022,575.7566528320312,575.3993499279022,575.7566528320312,574.3669929504395,None,574.3669929504395,None,574.3669929504395,None,-1,-1,1,3,424.26538467407227,943.981409072876,left,577.6155958175659,None,JPO_pilot,icub,clamp,2021_Dec_17_1550,exp,2021.2.3,59.96102958520668,
right,go,1,0,1,0,0,1,1,3,578.1349709033966,None,1,1.0999810695648193,578.1349709033966,None,579.3356308937073,None,580.3521859645844,580.7174108028412,580.3521859645844,580.7174108028412,579.3356308937073,None,579.3356308937073,None,579.3356308937073,None,-1,-1,1,3,557.1002960205078,781.0404300689697,right,582.5468528270721,None,JPO_pilot,icub,clamp,2021_Dec_17_1550,exp,2021.2.3,59.96102958520668,
right,stop,1,0,1,0,0,2,2,5,583.0817427635193,None,1,0.8987510204315186,583.0817427635193,None,584.0560097694397,None,585.0716669559479,585.4239039421082,585.0716669559479,585.4239039421082,584.0560097694397,None,584.0560097694397,None,584.0560097694397,None,750,800,0,3,257.2603225708008,709.4838619232178,right,586.9073569774628,None,JPO_pilot,icub,clamp,2021_Dec_17_1550,exp,2021.2.3,59.96102958520668,
right,go,1,0,1,0,0,3,3,3,587.4237539768219,None,1,1.6669130325317383,587.4237539768219,None,589.2065348625183,None,590.1982247829437,590.5446529388428,590.1982247829437,590.5446529388428,589.2065348625183,None,589.2065348625183,None,589.2065348625183,None,-1,-1,1,3,310.6725215911865,1109.363317489624,right,592.5197789669037,None,JPO_pilot,icub,clamp,2021_Dec_17_1550,exp,2021.2.3,59.96102958520668,
right,stop,1,0,1,0,0,4,4,5,593.0174357891083,None,1,0.8538899421691895,593.0174357891083,None,593.9902257919312,None,594.9989438056946,595.3471488952637,594.9989438056946,595.3471488952637,593.9902257919312,None,593.9902257919312,None,593.9902257919312,None,750,750,1,3,504.44912910461426,-1.0,-1,599.3688468933105,None,JPO_pilot,icub,clamp,2021_Dec_17_1550,exp,2021.2.3,59.96102958520668,
right,stop,1,0,1,0,0,5,5,5,599.9018948078156,None,1,0.8670449256896973,599.9018948078156,None,600.8855588436127,None,601.8671298027039,602.2226197719574,601.8671298027039,602.2226197719574,600.8855588436127,None,600.8855588436127,None,600.8855588436127,None,750,800,1,3,407.4211120605469,-1.0,-1,606.1916558742523,None,JPO_pilot,icub,clamp,2021_Dec_17_1550,exp,2021.2.3,59.96102958520668,
left,go,1,0,1,0,1,0,6,0,606.7225949764252,None,1,0.819282054901123,606.7225949764252,None,607.6433398723602,None,608.6479427814484,609.0026488304138,608.6479427814484,609.0026488304138,607.6433398723602,None,607.6433398723602,None,607.6433398723602,None,-1,-1,1,3,477.9226779937744,1082.4668407440186,left,611.0870959758759,None,JPO_pilot,icub,clamp,2021_Dec_17_1550,exp,2021.2.3,59.96102958520668,
left,stop,1,0,1,0,1,1,7,2,611.6207299232483,None,1,0.8427181243896484,611.6207299232483,None,612.5916337966919,None,613.617104768753,613.9766829013824,613.617104768753,613.9766829013824,612.5916337966919,None,612.5916337966919,None,612.5916337966919,None,750,850,1,3,467.56887435913086,-1.0,-1,617.9342498779297,None,JPO_pilot,icub,clamp,2021_Dec_17_1550,exp,2021.2.3,59.96102958520668,
right,stop,1,0,1,0,1,2,8,5,618.4663219451904,None,1,0.8786299228668213,618.4663219451904,None,619.4503428936005,None,620.4451568126678,620.7890689373016,620.4451568126678,620.7890689373016,619.4503428936005,None,619.4503428936005,None,619.4503428936005,None,800,850,1,3,457.07178115844727,-1.0,-1,624.7787809371948,None,JPO_pilot,icub,clamp,2021_Dec_17_1550,exp,2021.2.3,59.96102958520668,
right,go,1,0,1,0,1,3,9,3,625.310380935669,None,1,0.978456974029541,625.310380935669,None,626.4155189990997,None,627.4017598628998,627.7555868625641,627.4017598628998,627.7555868625641,626.4155189990997,None,626.4155189990997,None,626.4155189990997,None,-1,-1,1,3,376.129150390625,1181.004285812378,right,629.8517229557037,None,JPO_pilot,icub,clamp,2021_Dec_17_1550,exp,2021.2.3,59.96102958520668,
left,go,1,0,1,0,1,4,10,1,630.3625087738037,None,1,0.819403886795044,630.3625087738037,None,631.276606798172,None,632.2979788780212,632.6649718284607,632.2979788780212,632.6649718284607,631.276606798172,None,631.276606798172,None,631.276606798172,None,-1,-1,1,3,559.6749782562256,1272.2537517547607,left,634.9871308803558,None,JPO_pilot,icub,clamp,2021_Dec_17_1550,exp,2021.2.3,59.96102958520668,
right,go,1,0,1,0,1,5,11,4,635.5061848163605,None,1,1.1395440101623535,635.5061848163605,None,636.7314398288727,None,637.7267827987671,638.0827767848969,637.7267827987671,638.0827767848969,636.7314398288727,None,636.7314398288727,None,636.7314398288727,None,-1,-1,1,3,391.58153533935547,935.3044033050537,right,639.9591488838196,None,JPO_pilot,icub,clamp,2021_Dec_17_1550,exp,2021.2.3,59.96102958520668,
left,go,1,0,1,0,2,0,12,1,640.4766638278961,None,1,1.0547161102294922,640.4766638278961,None,641.6382458209991,None,642.6404139995575,642.9751169681549,642.6404139995575,642.9751169681549,641.6382458209991,None,641.6382458209991,None,641.6382458209991,None,-1,-1,1,3,378.1709671020508,1081.063985824585,left,645.0015749931335,None,JPO_pilot,icub,clamp,2021_Dec_17_1550,exp,2021.2.3,59.96102958520668,
right,go,1,0,1,0,2,1,13,4,645.5323979854584,None,1,0.7149801254272461,645.5323979854584,None,646.3227128982544,None,647.3260958194733,647.688384771347,647.3260958194733,647.688384771347,646.3227128982544,None,646.3227128982544,None,646.3227128982544,None,-1,-1,1,3,429.00967597961426,982.1779727935791,right,649.6237888336182,None,JPO_pilot,icub,clamp,2021_Dec_17_1550,exp,2021.2.3,59.96102958520668,
left,go,1,0,1,0,2,2,14,0,650.1411869525909,None,1,0.8341820240020752,650.1411869525909,None,651.0993449687958,None,652.0973958969116,652.4526557922363,652.0973958969116,652.4526557922363,651.0993449687958,None,651.0993449687958,None,651.0993449687958,None,-1,-1,1,3,248.14987182617188,1156.076431274414,left,654.3812818527222,None,JPO_pilot,icub,clamp,2021_Dec_17_1550,exp,2021.2.3,59.96102958520668,
left,go,1,0,1,0,2,3,15,1,654.8995518684387,None,1,0.6896779537200928,654.8995518684387,None,655.7217769622803,None,656.7169718742371,657.0733239650726,656.7169718742371,657.0733239650726,655.7217769622803,None,655.7217769622803,None,655.7217769622803,None,-1,-1,1,3,412.4183654785156,1285.0310802459717,left,659.3003468513489,None,JPO_pilot,icub,clamp,2021_Dec_17_1550,exp,2021.2.3,59.96102958520668,
left,stop,1,0,1,0,2,4,16,2,659.8195769786835,None,1,0.9397919178009033,659.8195769786835,None,660.8611989021301,None,661.8656799793243,662.209193944931,661.8656799793243,662.209193944931,660.8611989021301,None,660.8611989021301,None,660.8611989021301,None,800,900,1,3,366.558313369751,-1.0,-1,666.1270008087158,None,JPO_pilot,icub,clamp,2021_Dec_17_1550,exp,2021.2.3,59.96102958520668,
left,go,1,0,1,0,2,5,17,1,666.6584949493408,None,1,0.6330909729003906,666.6584949493408,None,667.3943569660187,None,668.3650529384613,668.7157208919525,668.3650529384613,668.7157208919525,667.3943569660187,None,667.3943569660187,None,667.3943569660187,None,-1,-1,1,3,366.530179977417,1247.5972175598145,left,670.894868850708,None,JPO_pilot,icub,clamp,2021_Dec_17_1550,exp,2021.2.3,59.96102958520668,
left,stop,1,0,1,0,3,0,18,2,671.4023308753967,None,1,0.7642920017242432,671.4023308753967,None,672.2573969364166,None,673.2493569850922,673.583153963089,673.2493569850922,673.583153963089,672.2573969364166,None,672.2573969364166,None,672.2573969364166,None,850,900,1,3,565.593957901001,-1.0,-1,677.7067198753357,None,JPO_pilot,icub,clamp,2021_Dec_17_1550,exp,2021.2.3,59.96102958520668,
left,go,1,0,1,0,3,1,19,0,678.2394149303436,None,1,0.7682490348815918,678.2394149303436,None,679.0992357730865,None,680.083625793457,680.4409189224243,680.083625793457,680.4409189224243,679.0992357730865,None,679.0992357730865,None,679.0992357730865,None,-1,-1,1,3,453.83381843566895,1329.5366764068604,left,682.7518379688263,None,JPO_pilot,icub,clamp,2021_Dec_17_1550,exp,2021.2.3,59.96102958520668,
left,go,1,0,1,0,3,2,20,1,683.2711479663849,None,1,0.7990269660949707,683.2711479663849,None,684.1842269897461,None,685.1786918640137,685.521057844162,685.1786918640137,685.521057844162,684.1842269897461,None,684.1842269897461,None,684.1842269897461,None,-1,-1,1,3,440.8707618713379,1215.752124786377,left,687.7117359638214,None,JPO_pilot,icub,clamp,2021_Dec_17_1550,exp,2021.2.3,59.96102958520668,
left,go,1,0,1,0,3,3,21,1,688.2293219566345,None,1,0.8138420581817627,688.2293219566345,None,689.14257979393,None,690.1561839580536,690.4991059303284,690.1561839580536,690.4991059303284,689.14257979393,None,689.14257979393,None,689.14257979393,None,-1,-1,1,3,410.52746772766113,1333.4686756134033,left,692.7656328678131,None,JPO_pilot,icub,clamp,2021_Dec_17_1550,exp,2021.2.3,59.96102958520668,
left,go,1,0,1,0,3,4,22,0,693.2756078243256,None,1,0.7938551902770996,693.2756078243256,None,694.1886518001556,None,695.2193658351898,695.5646958351135,695.2193658351898,695.5646958351135,694.1886518001556,None,694.1886518001556,None,694.1886518001556,None,-1,-1,1,3,392.9715156555176,1296.2646484375,left,697.784637928009,None,JPO_pilot,icub,clamp,2021_Dec_17_1550,exp,2021.2.3,59.96102958520668,
right,stop,1,0,1,0,3,5,23,5,698.3026127815247,None,1,0.7963769435882568,698.3026127815247,None,699.2125208377838,None,700.2079927921295,700.5429968833923,700.2079927921295,700.5429968833923,699.2125208377838,None,699.2125208377838,None,699.2125208377838,None,900,900,0,3,344.42901611328125,1055.2167892456055,right,702.5225579738617,None,JPO_pilot,icub,clamp,2021_Dec_17_1550,exp,2021.2.3,59.96102958520668,
left,go,1,0,1,0,4,0,24,1,703.021978855133,None,1,1.5451350212097168,703.021978855133,None,704.6915519237518,None,705.6965088844299,706.0564148426056,705.6965088844299,706.0564148426056,704.6915519237518,None,704.6915519237518,None,704.6915519237518,None,-1,-1,1,3,571.7980861663818,1376.9166469573975,left,708.5392498970032,None,JPO_pilot,icub,clamp,2021_Dec_17_1550,exp,2021.2.3,59.96102958520668,
right,stop,1,0,1,0,4,1,25,5,709.0473659038544,None,1,0.900536060333252,709.0473659038544,None,710.0235939025879,None,711.0446968078613,711.3939549922943,711.0446968078613,711.3939549922943,710.0235939025879,None,710.0235939025879,None,710.0235939025879,None,900,850,1,3,296.24176025390625,-1.0,-1,715.2236888408661,None,JPO_pilot,icub,clamp,2021_Dec_17_1550,exp,2021.2.3,59.96102958520668,
left,go,1,0,1,0,4,2,26,0,715.7560348510742,None,1,0.8513760566711426,715.7560348510742,None,716.7390658855438,None,717.732430934906,718.0832908153534,717.732430934906,718.0832908153534,716.7390658855438,None,716.7390658855438,None,716.7390658855438,None,-1,-1,1,3,329.29086685180664,1559.615135192871,left,720.506532907486,None,JPO_pilot,icub,clamp,2021_Dec_17_1550,exp,2021.2.3,59.96102958520668,
left,go,1,0,1,0,4,3,27,1,721.0248119831085,None,1,0.6415319442749023,721.0248119831085,None,721.7520339488983,None,722.7813007831573,723.1287178993225,722.7813007831573,723.1287178993225,721.7520339488983,None,721.7520339488983,None,721.7520339488983,None,-1,-1,1,3,302.9506206512451,1734.283208847046,left,725.689160823822,None,JPO_pilot,icub,clamp,2021_Dec_17_1550,exp,2021.2.3,59.96102958520668,
left,go,1,0,1,0,4,4,28,0,726.2129619121552,None,1,1.272933006286621,726.2129619121552,None,727.5611219406128,None,728.5941398143768,728.9574518203735,728.5941398143768,728.9574518203735,727.5611219406128,None,727.5611219406128,None,727.5611219406128,None,-1,-1,1,3,532.6511859893799,1422.0991134643555,left,731.3954589366913,None,JPO_pilot,icub,clamp,2021_Dec_17_1550,exp,2021.2.3,59.96102958520668,
right,go,1,0,1,0,4,5,29,4,731.916268825531,None,1,0.9177331924438477,731.916268825531,None,732.9537198543549,None,733.9667007923126,734.3197689056396,733.9667007923126,734.3197689056396,732.9537198543549,None,732.9537198543549,None,732.9537198543549,None,-1,-1,1,3,356.45318031311035,1271.198034286499,right,736.472874879837,None,JPO_pilot,icub,clamp,2021_Dec_17_1550,exp,2021.2.3,59.96102958520668,
right,go,1,0,1,0,5,0,30,4,736.9948718547821,None,1,0.6581568717956543,736.9948718547821,None,737.7815399169922,None,738.805820941925,739.1530649662018,738.805820941925,739.1530649662018,737.7815399169922,None,737.7815399169922,None,737.7815399169922,None,-1,-1,1,3,281.43811225891113,1122.1833229064941,right,741.0894629955292,None,JPO_pilot,icub,clamp,2021_Dec_17_1550,exp,2021.2.3,59.96102958520668,
right,go,1,0,1,0,5,1,31,4,741.6226758956909,None,1,0.6594870090484619,741.6226758956909,None,742.4099638462067,None,743.4163467884064,743.7474479675293,743.4163467884064,743.7474479675293,742.4099638462067,None,742.4099638462067,None,742.4099638462067,None,-1,-1,1,3,354.61950302124023,1171.7395782470703,right,745.8344218730927,None,JPO_pilot,icub,clamp,2021_Dec_17_1550,exp,2021.2.3,59.96102958520668,
left,go,1,0,1,0,5,2,32,0,746.340607881546,None,1,0.8032131195068359,746.340607881546,None,747.2552189826965,None,748.2541589736938,748.6082308292389,748.2541589736938,748.6082308292389,747.2552189826965,None,747.2552189826965,None,747.2552189826965,None,-1,-1,1,3,305.330753326416,1251.1849403381348,left,750.6966807842255,None,JPO_pilot,icub,clamp,2021_Dec_17_1550,exp,2021.2.3,59.96102958520668,
left,stop,1,0,1,0,5,3,33,2,751.2300927639008,None,1,0.9857208728790283,751.2300927639008,None,752.3277289867401,None,753.3220868110657,753.6675338745117,753.3220868110657,753.6675338745117,752.3277289867401,None,752.3277289867401,None,752.3277289867401,None,900,900,0,3,498.9743232727051,1013.7691497802734,left,755.7195749282837,None,JPO_pilot,icub,clamp,2021_Dec_17_1550,exp,2021.2.3,59.96102958520668,
right,stop,1,0,1,0,5,4,34,5,756.2294178009033,None,1,1.0903809070587158,756.2294178009033,None,757.4473519325256,None,758.4560627937317,758.8164548873901,758.4560627937317,758.8164548873901,757.4473519325256,None,757.4473519325256,None,757.4473519325256,None,850,900,1,3,270.6923484802246,-1.0,-1,762.625284910202,None,JPO_pilot,icub,clamp,2021_Dec_17_1550,exp,2021.2.3,59.96102958520668,
left,go,1,0,1,0,5,5,35,0,763.1194717884064,None,1,0.5368130207061768,763.1194717884064,None,763.7940769195557,None,764.7710919380188,765.1321449279785,764.7710919380188,765.1321449279785,763.7940769195557,None,763.7940769195557,None,763.7940769195557,None,-1,-1,1,3,261.7971897125244,1462.5396728515625,left,767.4144608974457,None,JPO_pilot,icub,clamp,2021_Dec_17_1550,exp,2021.2.3,59.96102958520668,
left,go,1,0,1,0,6,0,36,1,767.9374599456787,None,1,0.6404478549957275,767.9374599456787,None,768.6533727645874,None,769.6643588542938,769.9990658760071,769.6643588542938,769.9990658760071,768.6533727645874,None,768.6533727645874,None,768.6533727645874,None,-1,-1,1,3,492.7349090576172,1129.2734146118164,left,772.1476218700409,None,JPO_pilot,icub,clamp,2021_Dec_17_1550,exp,2021.2.3,59.96102958520668,
right,go,1,0,1,0,6,1,37,3,772.6525039672852,None,1,0.5773642063140869,772.6525039672852,None,773.3205847740173,None,774.3401029109955,774.6992099285126,774.3401029109955,774.6992099285126,773.3205847740173,None,773.3205847740173,None,773.3205847740173,None,-1,-1,1,3,303.7703037261963,1226.935863494873,right,776.7524168491364,None,JPO_pilot,icub,clamp,2021_Dec_17_1550,exp,2021.2.3,59.96102958520668,
left,stop,1,0,1,0,6,2,38,2,777.266569852829,None,1,0.5982890129089355,777.266569852829,None,777.9939048290253,None,779.019681930542,779.3723919391632,779.019681930542,779.3723919391632,777.9939048290253,None,777.9939048290253,None,777.9939048290253,None,850,950,1,3,272.80235290527344,-1.0,-1,783.1687698364258,None,JPO_pilot,icub,clamp,2021_Dec_17_1550,exp,2021.2.3,59.96102958520668,
left,go,1,0,1,0,6,3,39,1,783.6993069648743,None,1,0.6018450260162354,783.6993069648743,None,784.4352748394012,None,785.4182097911835,785.7696888446808,785.4182097911835,785.7696888446808,784.4352748394012,None,784.4352748394012,None,784.4352748394012,None,-1,-1,1,3,395.7369327545166,1328.416347503662,left,788.0267097949982,None,JPO_pilot,icub,clamp,2021_Dec_17_1550,exp,2021.2.3,59.96102958520668,
left,stop,1,0,1,0,6,4,40,2,788.5457649230957,None,1,1.2900588512420654,788.5457649230957,None,789.937255859375,None,790.9457609653473,791.3035848140717,790.9457609653473,791.3035848140717,789.937255859375,None,789.937255859375,None,789.937255859375,None,,,0,3,-1.0,-1.0,-1,791.7376198768616,None,JPO_pilot,icub,clamp,2021_Dec_17_1550,exp,2021.2.3,59.96102958520668,
right,go,1,0,1,0,6,5,41,4,792.2313277721405,None,1,1.256978988647461,792.2313277721405,None,793.5864338874817,None,794.5899419784546,794.9545648097992,794.5899419784546,794.9545648097992,793.5864338874817,None,793.5864338874817,None,793.5864338874817,None,-1,-1,1,3,423.36225509643555,1295.961856842041,right,797.2074158191681,None,JPO_pilot,icub,clamp,2021_Dec_17_1550,exp,2021.2.3,59.96102958520668,
right,go,1,0,1,0,7,0,42,4,797.7232789993286,None,1,0.7612628936767578,797.7232789993286,None,798.5678989887238,None,799.576534986496,799.9486718177795,799.576534986496,799.9486718177795,798.5678989887238,None,798.5678989887238,None,798.5678989887238,None,-1,-1,1,3,474.2779731750488,1038.4886264801025,right,801.9472889900208,None,JPO_pilot,icub,clamp,2021_Dec_17_1550,exp,2021.2.3,59.96102958520668,
right,stop,1,0,1,0,7,1,43,5,802.464647769928,None,1,0.5570569038391113,802.464647769928,None,803.1286149024963,None,804.129273891449,804.4822568893433,804.129273891449,804.4822568893433,803.1286149024963,None,803.1286149024963,None,803.1286149024963,None,900,950,0,3,506.00218772888184,1100.1672744750977,right,806.6265118122101,None,JPO_pilot,icub,clamp,2021_Dec_17_1550,exp,2021.2.3,59.96102958520668,
left,go,1,0,1,0,7,2,44,1,807.152144908905,None,1,1.7413568496704102,807.152144908905,None,808.9945387840271,None,810.0055389404297,810.3594238758087,810.0055389404297,810.3594238758087,808.9945387840271,None,808.9945387840271,None,808.9945387840271,None,-1,-1,1,3,414.34788703918457,1500.908613204956,left,812.8110649585724,None,JPO_pilot,icub,clamp,2021_Dec_17_1550,exp,2021.2.3,59.96102958520668,
left,go,1,0,1,0,7,3,45,0,813.3103229999542,None,1,0.7786960601806641,813.3103229999542,None,814.1597127914429,None,815.1889119148254,815.5528869628906,815.1889119148254,815.5528869628906,814.1597127914429,None,814.1597127914429,None,814.1597127914429,None,-1,-1,1,3,403.1825065612793,1547.0399856567383,left,817.9941558837891,None,JPO_pilot,icub,clamp,2021_Dec_17_1550,exp,2021.2.3,59.96102958520668,
right,go,1,0,1,0,7,4,46,3,818.5022749900818,None,1,0.6315300464630127,818.5022749900818,None,819.2294919490814,None,820.2483417987823,820.5875198841095,820.2483417987823,820.5875198841095,819.2294919490814,None,819.2294919490814,None,819.2294919490814,None,-1,-1,1,3,408.89573097229004,1432.912826538086,right,822.9620177745819,None,JPO_pilot,icub,clamp,2021_Dec_17_1550,exp,2021.2.3,59.96102958520668,
right,go,1,0,1,0,7,5,47,3,823.4734568595886,None,1,0.5782260894775391,823.4734568595886,None,824.1426677703857,None,825.1619827747345,825.5187587738037,825.1619827747345,825.5187587738037,824.1426677703857,None,824.1426677703857,None,824.1426677703857,None,-1,-1,1,3,481.3120365142822,1574.211835861206,right,828.1025929450989,None,JPO_pilot,icub,clamp,2021_Dec_17_1550,exp,2021.2.3,59.96102958520668,
left,stop,1,0,1,0,8,0,48,2,828.6324548721313,None,1,0.6382720470428467,828.6324548721313,None,829.3562347888947,None,830.3653469085693,830.715479850769,830.3653469085693,830.715479850769,829.3562347888947,None,829.3562347888947,None,829.3562347888947,None,900,900,1,3,447.9837417602539,-1.0,-1,834.6933219432831,None,JPO_pilot,icub,clamp,2021_Dec_17_1550,exp,2021.2.3,59.96102958520668,
right,go,1,0,1,0,8,1,49,4,835.2256999015808,None,1,0.8073909282684326,835.2256999015808,None,836.1491088867188,None,837.1247808933258,837.4870328903198,837.1247808933258,837.4870328903198,836.1491088867188,None,836.1491088867188,None,836.1491088867188,None,-1,-1,1,3,375.6253719329834,1620.6395626068115,right,840.0171508789062,None,JPO_pilot,icub,clamp,2021_Dec_17_1550,exp,2021.2.3,59.96102958520668,
right,go,1,0,1,0,8,2,50,4,840.524838924408,None,1,0.6631660461425781,840.524838924408,None,841.3116738796234,None,842.3036599159241,842.6402487754822,842.3036599159241,842.6402487754822,841.3116738796234,None,841.3116738796234,None,841.3116738796234,None,-1,-1,1,3,438.1229877471924,1692.251205444336,right,845.345428943634,None,JPO_pilot,icub,clamp,2021_Dec_17_1550,exp,2021.2.3,59.96102958520668,
right,stop,1,0,1,0,8,3,51,5,845.8653979301453,None,1,0.5951290130615234,845.8653979301453,None,846.5847098827362,None,847.6085369586945,847.9635858535767,847.6085369586945,847.9635858535767,846.5847098827362,None,846.5847098827362,None,846.5847098827362,None,950,900,1,3,392.60315895080566,-1.0,-1,851.886668920517,None,JPO_pilot,icub,clamp,2021_Dec_17_1550,exp,2021.2.3,59.96102958520668,
left,stop,1,0,1,0,8,4,52,2,852.4190859794617,None,1,0.5989789962768555,852.4190859794617,None,853.1552469730377,None,854.1326239109039,854.4894869327545,854.1326239109039,854.4894869327545,853.1552469730377,None,853.1552469730377,None,853.1552469730377,None,950,950,1,3,1381.927490234375,-1.0,-1,859.437745809555,None,JPO_pilot,icub,clamp,2021_Dec_17_1550,exp,2021.2.3,59.96102958520668,
left,stop,1,0,1,0,8,5,53,2,859.9687328338623,None,1,0.3873441219329834,859.9687328338623,None,860.4540917873383,None,861.4392628669739,861.8020858764648,861.4392628669739,861.8020858764648,860.4540917873383,None,860.4540917873383,None,860.4540917873383,None,1000,950,1,3,432.99365043640137,-1.0,-1,865.7663078308105,None,JPO_pilot,icub,clamp,2021_Dec_17_1550,exp,2021.2.3,59.96102958520668,
right,go,1,0,1,0,9,0,54,3,866.3002328872681,None,1,0.5866689682006836,866.3002328872681,None,866.9752628803253,None,867.9711358547211,868.3258969783783,867.9711358547211,868.3258969783783,866.9752628803253,None,866.9752628803253,None,866.9752628803253,None,-1,-1,1,3,405.1051139831543,1317.1465396881104,right,870.5798738002777,None,JPO_pilot,icub,clamp,2021_Dec_17_1550,exp,2021.2.3,59.96102958520668,
left,stop,1,0,1,0,9,1,55,2,871.0958828926086,None,1,0.7088010311126709,871.0958828926086,None,871.8900167942047,None,872.9082839488983,873.2530348300934,872.9082839488983,873.2530348300934,871.8900167942047,None,871.8900167942047,None,871.8900167942047,None,1050,950,0,3,396.045446395874,939.176082611084,left,875.1141397953033,None,JPO_pilot,icub,clamp,2021_Dec_17_1550,exp,2021.2.3,59.96102958520668,
right,stop,1,0,1,0,9,2,56,5,875.6167778968811,None,1,1.821969985961914,875.6167778968811,None,877.5193109512329,None,878.5328938961029,878.8973968029022,878.5328938961029,878.8973968029022,877.5193109512329,None,877.5193109512329,None,877.5193109512329,None,1000,950,1,3,532.240629196167,-1.0,-1,882.9588038921356,None,JPO_pilot,icub,clamp,2021_Dec_17_1550,exp,2021.2.3,59.96102958520668,
right,stop,1,0,1,0,9,3,57,5,883.4509718418121,None,1,0.5949628353118896,883.4509718418121,None,884.1247229576111,None,885.1113498210907,885.4676778316498,885.1113498210907,885.4676778316498,884.1247229576111,None,884.1247229576111,None,884.1247229576111,None,1000,1000,1,3,379.011869430542,-1.0,-1,889.3697347640991,None,JPO_pilot,icub,clamp,2021_Dec_17_1550,exp,2021.2.3,59.96102958520668,
right,go,1,0,1,0,9,4,58,4,889.9034738540649,None,1,0.38755083084106445,889.9034738540649,None,890.3927838802338,None,891.3773288726807,891.7351319789886,891.3773288726807,891.7351319789886,890.3927838802338,None,890.3927838802338,None,890.3927838802338,None,-1,-1,1,3,343.86277198791504,1830.094337463379,right,894.456221818924,None,JPO_pilot,icub,clamp,2021_Dec_17_1550,exp,2021.2.3,59.96102958520668,
left,stop,1,0,1,0,9,5,59,2,894.9823949337006,None,1,0.6071889400482178,894.9823949337006,None,895.7083928585052,None,896.7286038398743,897.089950799942,896.7286038398743,897.089950799942,895.7083928585052,None,895.7083928585052,None,895.7083928585052,None,1000,1050,1,3,428.1432628631592,-1.0,-1,901.0090267658234,None,JPO_pilot,icub,clamp,2021_Dec_17_1550,exp,2021.2.3,59.96102958520668,
right,go,1,0,1,0,10,0,60,3,901.5405118465424,None,1,0.3463709354400635,901.5405118465424,None,901.9670729637146,None,902.9497699737549,903.2994728088379,902.9497699737549,903.2994728088379,901.9670729637146,None,901.9670729637146,None,901.9670729637146,None,-1,-1,1,3,452.09598541259766,1726.7475128173828,right,906.0394139289856,None,JPO_pilot,icub,clamp,2021_Dec_17_1550,exp,2021.2.3,59.96102958520668,
right,go,1,0,1,0,10,1,61,4,906.5537729263306,None,1,0.6247000694274902,906.5537729263306,None,907.2792768478394,None,908.2741777896881,908.6101908683777,908.2741777896881,908.6101908683777,907.2792768478394,None,907.2792768478394,None,907.2792768478394,None,-1,-1,1,3,306.8208694458008,1351.6430854797363,right,910.8297989368439,None,JPO_pilot,icub,clamp,2021_Dec_17_1550,exp,2021.2.3,59.96102958520668,
right,go,1,0,1,0,10,2,62,4,911.346685886383,None,1,0.8308970928192139,911.346685886383,None,912.2629909515381,None,913.270840883255,913.6180830001831,913.270840883255,913.6180830001831,912.2629909515381,None,912.2629909515381,None,912.2629909515381,None,-1,-1,1,3,664.8375988006592,1616.1730289459229,right,916.4208087921143,None,JPO_pilot,icub,clamp,2021_Dec_17_1550,exp,2021.2.3,59.96102958520668,
left,stop,1,0,1,0,10,3,63,2,916.9225368499756,None,1,0.6769969463348389,916.9225368499756,None,917.7110419273376,None,918.7292478084564,919.0606708526611,918.7292478084564,919.0606708526611,917.7110419273376,None,917.7110419273376,None,917.7110419273376,None,1050,1050,1,3,148.27203750610352,-1.0,-1,922.7386858463287,None,JPO_pilot,icub,clamp,2021_Dec_17_1550,exp,2021.2.3,59.96102958520668,
right,go,1,0,1,0,10,4,64,3,923.2725958824158,None,1,0.3051891326904297,923.2725958824158,None,923.6994137763977,None,924.7118918895721,925.0783069133759,924.7118918895721,925.0783069133759,923.6994137763977,None,923.6994137763977,None,923.6994137763977,None,-1,-1,1,3,264.7099494934082,1804.3830394744873,right,927.636403799057,None,JPO_pilot,icub,clamp,2021_Dec_17_1550,exp,2021.2.3,59.96102958520668,
left,go,1,0,1,0,10,5,65,1,928.1533968448639,None,1,0.6714282035827637,928.1533968448639,None,928.9438607692719,None,929.9404318332672,930.2898228168488,929.9404318332672,930.2898228168488,928.9438607692719,None,928.9438607692719,None,928.9438607692719,None,,,0,3,-1.0,-1.0,-1,930.7398359775543,None,JPO_pilot,icub,clamp,2021_Dec_17_1550,exp,2021.2.3,59.96102958520668,
right,go,1,0,1,0,11,0,66,3,931.2683029174805,None,1,0.9245729446411133,931.2683029174805,None,932.3131239414215,None,933.2979347705841,933.6552879810333,933.2979347705841,933.6552879810333,932.3131239414215,None,932.3131239414215,None,932.3131239414215,None,-1,-1,1,3,412.5652313232422,1522.9449272155762,right,936.1278018951416,None,JPO_pilot,icub,clamp,2021_Dec_17_1550,exp,2021.2.3,59.96102958520668,
right,go,1,0,1,0,11,1,67,3,936.6591458320618,None,1,0.607961893081665,936.6591458320618,None,937.3854057788849,None,938.3959329128265,938.7374517917633,938.3959329128265,938.7374517917633,937.3854057788849,None,937.3854057788849,None,937.3854057788849,None,-1,-1,1,3,474.66421127319336,1449.476718902588,right,941.1889328956604,None,JPO_pilot,icub,clamp,2021_Dec_17_1550,exp,2021.2.3,59.96102958520668,
left,go,1,0,1,0,11,2,68,0,941.6947247982025,None,1,0.6095259189605713,941.6947247982025,None,942.4227547645569,None,943.4526658058167,943.8002178668976,943.4526658058167,943.8002178668976,942.4227547645569,None,942.4227547645569,None,942.4227547645569,None,-1,-1,1,3,453.7689685821533,1495.9297180175781,left,946.2663149833679,None,JPO_pilot,icub,clamp,2021_Dec_17_1550,exp,2021.2.3,59.96102958520668,
left,go,1,0,1,0,11,3,69,0,946.794588804245,None,1,0.6959021091461182,946.794588804245,None,947.5858469009399,None,948.5785639286041,948.9315738677979,948.5785639286041,948.9315738677979,947.5858469009399,None,947.5858469009399,None,947.5858469009399,None,-1,-1,1,3,397.2430229187012,1569.183111190796,left,951.4307689666748,None,JPO_pilot,icub,clamp,2021_Dec_17_1550,exp,2021.2.3,59.96102958520668,
right,go,1,0,1,0,11,4,70,4,951.936696767807,None,1,0.6895041465759277,951.936696767807,None,952.7277147769928,None,953.7342488765717,954.0870199203491,953.7342488765717,954.0870199203491,952.7277147769928,None,952.7277147769928,None,952.7277147769928,None,-1,-1,1,3,355.73863983154297,1667.2732830047607,right,956.6362497806549,None,JPO_pilot,icub,clamp,2021_Dec_17_1550,exp,2021.2.3,59.96102958520668,
right,stop,1,0,1,0,11,5,71,5,957.1517708301544,None,1,0.5585341453552246,957.1517708301544,None,957.8166837692261,None,958.8299689292908,959.165041923523,958.8299689292908,959.165041923523,957.8166837692261,None,957.8166837692261,None,957.8166837692261,None,1100,1050,1,3,284.43074226379395,-1.0,-1,963.0003428459167,None,JPO_pilot,icub,clamp,2021_Dec_17_1550,exp,2021.2.3,59.96102958520668,
left,stop,1,0,1,0,12,0,72,2,963.5312118530273,None,1,0.4845561981201172,963.5312118530273,None,964.1434729099274,None,965.1193869113922,965.4681179523468,965.1193869113922,965.4681179523468,964.1434729099274,None,964.1434729099274,None,964.1434729099274,None,1100,1100,0,3,339.8776054382324,1416.0692691802979,left,967.7979807853699,None,JPO_pilot,icub,clamp,2021_Dec_17_1550,exp,2021.2.3,59.96102958520668,
left,go,1,0,1,0,12,1,73,0,968.3129529953003,None,1,1.0759119987487793,968.3129529953003,None,969.4742588996887,None,970.4731478691101,970.8338499069214,970.4731478691101,970.8338499069214,969.4742588996887,None,969.4742588996887,None,969.4742588996887,None,-1,-1,1,3,428.1320571899414,1701.3211250305176,left,973.493644952774,None,JPO_pilot,icub,clamp,2021_Dec_17_1550,exp,2021.2.3,59.96102958520668,
right,go,1,0,1,0,12,2,74,3,974.0086708068848,None,1,0.5186657905578613,974.0086708068848,None,974.6127808094025,None,975.6163449287415,975.9697690010071,975.6163449287415,975.9697690010071,974.6127808094025,None,974.6127808094025,None,974.6127808094025,None,-1,-1,1,3,441.8759346008301,1416.4226055145264,right,978.378616809845,None,JPO_pilot,icub,clamp,2021_Dec_17_1550,exp,2021.2.3,59.96102958520668,
left,go,1,0,1,0,12,3,75,0,978.8968908786774,None,1,0.5293071269989014,978.8968908786774,None,979.5015788078308,None,980.5229949951172,980.8826289176941,980.5229949951172,980.8826289176941,979.5015788078308,None,979.5015788078308,None,979.5015788078308,None,-1,-1,1,3,276.83115005493164,1922.9843616485596,left,983.6079487800598,None,JPO_pilot,icub,clamp,2021_Dec_17_1550,exp,2021.2.3,59.96102958520668,
right,stop,1,0,1,0,12,4,76,5,984.1273438930511,None,1,0.5181488990783691,984.1273438930511,None,984.7313168048859,None,985.7412929534912,986.091775894165,985.7412929534912,986.091775894165,984.7313168048859,None,984.7313168048859,None,984.7313168048859,None,1050,1100,1,3,261.7619037628174,-1.0,-1,989.8837769031525,None,JPO_pilot,icub,clamp,2021_Dec_17_1550,exp,2021.2.3,59.96102958520668,
right,go,1,0,1,0,12,5,77,3,990.416268825531,None,1,0.4984009265899658,990.416268825531,None,991.0278577804565,None,992.0155827999115,992.3686349391937,992.0155827999115,992.3686349391937,991.0278577804565,None,991.0278577804565,None,991.0278577804565,None,-1,-1,1,3,280.96580505371094,1757.9972743988037,right,994.9397118091583,None,JPO_pilot,icub,clamp,2021_Dec_17_1550,exp,2021.2.3,59.96102958520668,
right,go,2,0,2,0,0,0,0,4,1008.40003490448,None,1,4.032355070114136,1008.40003490448,None,1012.5231819152832,None,1013.5480849742889,1013.8970549106598,1013.5480849742889,1013.8970549106598,1012.5231819152832,None,1012.5231819152832,None,1012.5231819152832,None,-1,-1,1,3,414.02649879455566,1448.627233505249,right,1016.2919249534607,None,JPO_pilot,icub,clamp,2021_Dec_17_1550,exp,2021.2.3,59.96102958520668,
left,go,2,0,2,0,0,1,1,1,1016.8100578784943,None,1,0.5926289558410645,1016.8100578784943,None,1017.5362508296967,None,1018.5432457923889,1018.867616891861,1018.5432457923889,1018.867616891861,1017.5362508296967,None,1017.5362508296967,None,1017.5362508296967,None,-1,-1,1,3,415.04359245300293,1534.1060161590576,left,1021.3806989192963,None,JPO_pilot,icub,clamp,2021_Dec_17_1550,exp,2021.2.3,59.96102958520668,
right,go,2,0,2,0,0,2,2,4,1021.8887588977814,None,1,0.5473499298095703,1021.8887588977814,None,1022.5556118488312,None,1023.5662128925323,1023.9245729446411,1023.5662128925323,1023.9245729446411,1022.5556118488312,None,1022.5556118488312,None,1022.5556118488312,None,-1,-1,1,3,105.26657104492188,1027.8735160827637,right,1025.5896079540253,None,JPO_pilot,icub,clamp,2021_Dec_17_1550,exp,2021.2.3,59.96102958520668,
right,stop,2,0,2,0,0,3,3,5,1026.109275817871,None,1,0.6780462265014648,1026.109275817871,None,1026.898022890091,None,1027.906555891037,1028.2525448799133,1027.906555891037,1028.2525448799133,1026.898022890091,None,1026.898022890091,None,1026.898022890091,None,1050,1150,1,3,278.759241104126,-1.0,-1,1032.0542259216309,None,JPO_pilot,icub,clamp,2021_Dec_17_1550,exp,2021.2.3,59.96102958520668,
left,go,2,0,2,0,0,4,4,0,1032.5880258083344,None,1,1.0974781513214111,1032.5880258083344,None,1033.8179388046265,None,1034.8017048835754,1035.1608369350433,1034.8017048835754,1035.1608369350433,1033.8179388046265,None,1033.8179388046265,None,1033.8179388046265,None,-1,-1,1,3,443.8016414642334,1379.1050910949707,left,1037.5170369148254,None,JPO_pilot,icub,clamp,2021_Dec_17_1550,exp,2021.2.3,59.96102958520668,
left,stop,2,0,2,0,0,5,5,2,1038.0341258049011,None,1,0.5391578674316406,1038.0341258049011,None,1038.6961047649384,None,1039.7006537914276,1040.0527658462524,1039.7006537914276,1040.0527658462524,1038.6961047649384,None,1038.6961047649384,None,1038.6961047649384,None,1050,1200,1,3,244.7185516357422,-1.0,-1,1043.8212008476257,None,JPO_pilot,icub,clamp,2021_Dec_17_1550,exp,2021.2.3,59.96102958520668,
left,stop,2,0,2,0,1,0,6,2,1044.3528800010681,None,1,0.9296579360961914,1044.3528800010681,None,1045.3973588943481,None,1046.3830208778381,1046.743427991867,1046.3830208778381,1046.743427991867,1045.3973588943481,None,1045.3973588943481,None,1045.3973588943481,None,1100,1200,1,3,365.5235767364502,-1.0,-1,1050.6389858722687,None,JPO_pilot,icub,clamp,2021_Dec_17_1550,exp,2021.2.3,59.96102958520668,
left,go,2,0,2,0,1,1,7,1,1051.1695969104767,None,1,0.5379021167755127,1051.1695969104767,None,1051.8443808555603,None,1052.8531317710876,1053.21750497818,1052.8531317710876,1053.21750497818,1051.8443808555603,None,1051.8443808555603,None,1051.8443808555603,None,-1,-1,1,3,662.7151966094971,1779.0486812591553,left,1056.1519978046417,None,JPO_pilot,icub,clamp,2021_Dec_17_1550,exp,2021.2.3,59.96102958520668,
right,go,2,0,2,0,1,2,8,3,1056.6699287891388,None,1,1.0261600017547607,1056.6699287891388,None,1057.771717786789,None,1058.7772319316864,1059.1286029815674,1058.7772319316864,1059.1286029815674,1057.771717786789,None,1057.771717786789,None,1057.771717786789,None,-1,-1,1,3,212.48435974121094,1401.193380355835,right,1061.275562763214,None,JPO_pilot,icub,clamp,2021_Dec_17_1550,exp,2021.2.3,59.96102958520668,
left,go,2,0,2,0,1,3,9,1,1061.7862949371338,None,1,0.7138960361480713,1061.7862949371338,None,1062.5806119441986,None,1063.584243774414,1063.9199829101562,1063.584243774414,1063.9199829101562,1062.5806119441986,None,1062.5806119441986,None,1062.5806119441986,None,-1,-1,1,3,194.49329376220703,1735.1672649383545,left,1066.4103968143463,None,JPO_pilot,icub,clamp,2021_Dec_17_1550,exp,2021.2.3,59.96102958520668,
left,go,2,0,2,0,1,4,10,0,1066.928787946701,None,1,0.7872459888458252,1066.928787946701,None,1067.8390448093414,None,1068.8727469444275,1069.234731912613,1068.8727469444275,1069.234731912613,1067.8390448093414,None,1067.8390448093414,None,1067.8390448093414,None,-1,-1,1,3,270.1857089996338,1553.5645484924316,left,1071.5349538326263,None,JPO_pilot,icub,clamp,2021_Dec_17_1550,exp,2021.2.3,59.96102958520668,
right,stop,2,0,2,0,1,5,11,5,1072.038388967514,None,1,0.6383171081542969,1072.038388967514,None,1072.7675619125366,None,1073.7754919528961,1074.1363108158112,1073.7754919528961,1074.1363108158112,1072.7675619125366,None,1072.7675619125366,None,1072.7675619125366,None,1150,1200,1,3,186.94138526916504,-1.0,-1,1077.8413689136505,None,JPO_pilot,icub,clamp,2021_Dec_17_1550,exp,2021.2.3,59.96102958520668,
left,go,2,0,2,0,2,0,12,1,1078.3724229335785,None,1,0.8291139602661133,1078.3724229335785,None,1079.2949957847595,None,1080.2758507728577,1080.6157279014587,1080.2758507728577,1080.6157279014587,1079.2949957847595,None,1079.2949957847595,None,1079.2949957847595,None,-1,-1,1,3,226.47523880004883,1725.7347106933594,left,1083.1402537822723,None,JPO_pilot,icub,clamp,2021_Dec_17_1550,exp,2021.2.3,59.96102958520668,
right,go,2,0,2,0,2,1,13,3,1083.6401009559631,None,1,1.4838340282440186,1083.6401009559631,None,1085.2350549697876,None,1086.242229938507,1086.5999767780304,1086.242229938507,1086.5999767780304,1085.2350549697876,None,1085.2350549697876,None,1085.2350549697876,None,-1,-1,1,3,320.27244567871094,1284.6601009368896,right,1088.7317349910736,None,JPO_pilot,icub,clamp,2021_Dec_17_1550,exp,2021.2.3,59.96102958520668,
right,go,2,0,2,0,2,2,14,3,1089.2316417694092,None,1,0.7391538619995117,1089.2316417694092,None,1090.0797679424286,None,1091.0920679569244,1091.4437568187714,1091.0920679569244,1091.4437568187714,1090.0797679424286,None,1090.0797679424286,None,1090.0797679424286,None,-1,-1,1,3,379.4105052947998,1504.0364265441895,right,1093.855507850647,None,JPO_pilot,icub,clamp,2021_Dec_17_1550,exp,2021.2.3,59.96102958520668,
left,go,2,0,2,0,2,3,15,0,1094.3923599720001,None,1,0.6367230415344238,1094.3923599720001,None,1095.120127916336,None,1096.113695859909,1096.4758467674255,1096.113695859909,1096.4758467674255,1095.120127916336,None,1095.120127916336,None,1095.120127916336,None,-1,-1,1,3,393.6939239501953,1382.2669982910156,left,1098.780277967453,None,JPO_pilot,icub,clamp,2021_Dec_17_1550,exp,2021.2.3,59.96102958520668,
left,go,2,0,2,0,2,4,16,1,1099.3131709098816,None,1,0.46977710723876953,1099.3131709098816,None,1099.8583359718323,None,1100.8811478614807,1101.2058458328247,1100.8811478614807,1101.2058458328247,1099.8583359718323,None,1099.8583359718323,None,1099.8583359718323,None,-1,-1,1,3,375.0646114349365,1532.641887664795,left,1103.654539823532,None,JPO_pilot,icub,clamp,2021_Dec_17_1550,exp,2021.2.3,59.96102958520668,
left,go,2,0,2,0,2,5,17,0,1104.163647890091,None,1,0.7500598430633545,1104.163647890091,None,1105.0141689777374,None,1106.0461030006409,1106.4030208587646,1106.0461030006409,1106.4030208587646,1105.0141689777374,None,1105.0141689777374,None,1105.0141689777374,None,-1,-1,1,3,355.3304672241211,1553.685188293457,left,1108.8184978961945,None,JPO_pilot,icub,clamp,2021_Dec_17_1550,exp,2021.2.3,59.96102958520668,
left,stop,2,0,2,0,3,0,18,2,1109.3537068367004,None,1,0.8233718872070312,1109.3537068367004,None,1110.2679297924042,None,1111.274130821228,1111.624163866043,1111.274130821228,1111.624163866043,1110.2679297924042,None,1110.2679297924042,None,1110.2679297924042,None,1150,1250,1,3,272.0012664794922,-1.0,-1,1115.4229629039764,None,JPO_pilot,icub,clamp,2021_Dec_17_1550,exp,2021.2.3,59.96102958520668,
right,stop,2,0,2,0,3,1,19,5,1115.9563689231873,None,1,0.9280350208282471,1115.9563689231873,None,1117.001357793808,None,1117.9865448474884,1118.3371269702911,1117.9865448474884,1118.3371269702911,1117.001357793808,None,1117.001357793808,None,1117.001357793808,None,1200,1250,1,3,352.689266204834,-1.0,-1,1122.2256708145142,None,JPO_pilot,icub,clamp,2021_Dec_17_1550,exp,2021.2.3,59.96102958520668,
right,go,2,0,2,0,3,2,20,3,1122.7569518089294,None,1,0.8474509716033936,1122.7569518089294,None,1123.741065979004,None,1124.751054763794,1125.1011698246002,1124.751054763794,1125.1011698246002,1123.741065979004,None,1123.741065979004,None,1123.741065979004,None,-1,-1,1,3,323.5783576965332,1757.3986053466797,right,1127.711698770523,None,JPO_pilot,icub,clamp,2021_Dec_17_1550,exp,2021.2.3,59.96102958520668,
right,go,2,0,2,0,3,3,21,4,1128.2200648784637,None,1,0.5377540588378906,1128.2200648784637,None,1128.8809888362885,None,1129.8902747631073,1130.2475318908691,1129.8902747631073,1130.2475318908691,1128.8809888362885,None,1128.8809888362885,None,1128.8809888362885,None,-1,-1,1,3,403.5048484802246,1834.1038227081299,right,1133.0162448883057,None,JPO_pilot,icub,clamp,2021_Dec_17_1550,exp,2021.2.3,59.96102958520668,
right,go,2,0,2,0,3,4,22,4,1133.5486288070679,None,1,0.47251105308532715,1133.5486288070679,None,1134.1495108604431,None,1135.1821489334106,1135.5320889949799,1135.1821489334106,1135.5320889949799,1134.1495108604431,None,1134.1495108604431,None,1134.1495108604431,None,-1,-1,1,3,355.288028717041,1945.434331893921,right,1138.3553397655487,None,JPO_pilot,icub,clamp,2021_Dec_17_1550,exp,2021.2.3,59.96102958520668,
left,go,2,0,2,0,3,5,23,0,1138.8913679122925,None,1,0.46329808235168457,1138.8913679122925,None,1139.4350538253784,None,1140.4566419124603,1140.8208878040314,1140.4566419124603,1140.8208878040314,1139.4350538253784,None,1139.4350538253784,None,1139.4350538253784,None,-1,-1,1,3,385.6508731842041,1769.3681716918945,left,1143.497312784195,None,JPO_pilot,icub,clamp,2021_Dec_17_1550,exp,2021.2.3,59.96102958520668,
left,stop,2,0,2,0,4,0,24,2,1144.0061647891998,None,1,0.5349829196929932,1144.0061647891998,None,1144.669516801834,None,1145.673306941986,1146.0290648937225,1145.673306941986,1146.0290648937225,1144.669516801834,None,1144.669516801834,None,1144.669516801834,None,1200,1300,1,3,312.12568283081055,-1.0,-1,1149.8629717826843,None,JPO_pilot,icub,clamp,2021_Dec_17_1550,exp,2021.2.3,59.96102958520668,
right,go,2,0,2,0,4,1,25,4,1150.3960947990417,None,1,0.5752508640289307,1150.3960947990417,None,1151.07017993927,None,1152.0478529930115,1152.4029099941254,1152.0478529930115,1152.4029099941254,1151.07017993927,None,1151.07017993927,None,1151.07017993927,None,-1,-1,1,3,234.0540885925293,1880.9773921966553,right,1155.0791628360748,None,JPO_pilot,icub,clamp,2021_Dec_17_1550,exp,2021.2.3,59.96102958520668,
right,go,2,0,2,0,4,2,26,3,1155.599361896515,None,1,0.6023571491241455,1155.599361896515,None,1156.32568192482,None,1157.3381187915802,1157.6895668506622,1157.3381187915802,1157.6895668506622,1156.32568192482,None,1156.32568192482,None,1156.32568192482,None,-1,-1,1,3,199.95355606079102,1919.9621677398682,right,1160.3202538490295,None,JPO_pilot,icub,clamp,2021_Dec_17_1550,exp,2021.2.3,59.96102958520668,
right,go,2,0,2,0,4,3,27,3,1160.8346009254456,None,1,0.6030731201171875,1160.8346009254456,None,1161.5664348602295,None,1162.581200838089,1162.940596818924,1162.581200838089,1162.940596818924,1161.5664348602295,None,1161.5664348602295,None,1161.5664348602295,None,-1,-1,1,3,353.9285659790039,2369.9142932891846,right,1166.1968169212341,None,JPO_pilot,icub,clamp,2021_Dec_17_1550,exp,2021.2.3,59.96102958520668,
right,stop,2,0,2,0,4,4,28,5,1166.7257499694824,None,1,0.6304428577423096,1166.7257499694824,None,1167.4416449069977,None,1168.4681799411774,1168.8053538799286,1168.4681799411774,1168.8053538799286,1167.4416449069977,None,1167.4416449069977,None,1167.4416449069977,None,1250,1300,1,3,456.6178321838379,-1.0,-1,1172.7860629558563,None,JPO_pilot,icub,clamp,2021_Dec_17_1550,exp,2021.2.3,59.96102958520668,
left,go,2,0,2,0,4,5,29,1,1173.3168728351593,None,1,0.714257001876831,1173.3168728351593,None,1174.1150608062744,None,1175.0898268222809,1175.4339418411255,1175.0898268222809,1175.4339418411255,1174.1150608062744,None,1174.1150608062744,None,1174.1150608062744,None,-1,-1,1,3,221.80914878845215,1908.0605506896973,left,1178.1224398612976,None,JPO_pilot,icub,clamp,2021_Dec_17_1550,exp,2021.2.3,59.96102958520668,
left,stop,2,0,2,0,5,0,30,2,1178.6595969200134,None,1,0.4722170829772949,1178.6595969200134,None,1179.259834766388,None,1180.2711009979248,1180.629900932312,1180.2711009979248,1180.629900932312,1179.259834766388,None,1179.259834766388,None,1179.259834766388,None,1250,1350,1,3,352.82421112060547,-1.0,-1,1184.497930765152,None,JPO_pilot,icub,clamp,2021_Dec_17_1550,exp,2021.2.3,59.96102958520668,
right,go,2,0,2,0,5,1,31,4,1185.0302028656006,None,1,0.3880119323730469,1185.0302028656006,None,1185.519497871399,None,1186.4987869262695,1186.8392508029938,1186.4987869262695,1186.8392508029938,1185.519497871399,None,1185.519497871399,None,1185.519497871399,None,-1,-1,1,3,318.39823722839355,1512.6152038574219,right,1189.2440419197083,None,JPO_pilot,icub,clamp,2021_Dec_17_1550,exp,2021.2.3,59.96102958520668,
left,go,2,0,2,0,5,2,32,1,1189.750897884369,None,1,0.4437379837036133,1189.750897884369,None,1190.288067817688,None,1191.3170747756958,1191.6676349639893,1191.3170747756958,1191.6676349639893,1190.288067817688,None,1190.288067817688,None,1190.288067817688,None,-1,-1,1,3,281.99028968811035,1688.8070106506348,left,1194.1701838970184,None,JPO_pilot,icub,clamp,2021_Dec_17_1550,exp,2021.2.3,59.96102958520668,
right,stop,2,0,2,0,5,3,33,5,1194.6956939697266,None,1,0.45744800567626953,1194.6956939697266,None,1195.2386329174042,None,1196.2533268928528,1196.6044228076935,1196.2533268928528,1196.6044228076935,1195.2386329174042,None,1195.2386329174042,None,1195.2386329174042,None,1300,1350,0,3,382.152795791626,1398.0164527893066,right,1198.9083669185638,None,JPO_pilot,icub,clamp,2021_Dec_17_1550,exp,2021.2.3,59.96102958520668,
left,stop,2,0,2,0,5,4,34,2,1199.4132449626923,None,1,1.697317123413086,1199.4132449626923,None,1201.1908757686615,None,1202.222095966339,1202.584398984909,1202.222095966339,1202.584398984909,1201.1908757686615,None,1201.1908757686615,None,1201.1908757686615,None,1300,1300,1,3,222.75710105895996,-1.0,-1,1206.3043308258057,None,JPO_pilot,icub,clamp,2021_Dec_17_1550,exp,2021.2.3,59.96102958520668,
right,go,2,0,2,0,5,5,35,3,1206.7982258796692,None,1,0.611778974533081,1206.7982258796692,None,1207.535309791565,None,1208.512200832367,1208.860673904419,1208.512200832367,1208.860673904419,1207.535309791565,None,1207.535309791565,None,1207.535309791565,None,-1,-1,1,3,183.86602401733398,2092.9205417633057,right,1211.7060279846191,None,JPO_pilot,icub,clamp,2021_Dec_17_1550,exp,2021.2.3,59.96102958520668,
right,stop,2,0,2,0,6,0,36,5,1212.2105379104614,None,1,0.6520130634307861,1212.2105379104614,None,1212.93798995018,None,1213.9348728656769,1214.2913777828217,1213.9348728656769,1214.2913777828217,1212.93798995018,None,1212.93798995018,None,1212.93798995018,None,1350,1300,1,3,350.27599334716797,-1.0,-1,1218.159057855606,None,JPO_pilot,icub,clamp,2021_Dec_17_1550,exp,2021.2.3,59.96102958520668,
left,go,2,0,2,0,6,1,37,1,1218.6914689540863,None,1,0.7095270156860352,1218.6914689540863,None,1219.489995956421,None,1220.4672107696533,1220.8178057670593,1220.4672107696533,1220.8178057670593,1219.489995956421,None,1219.489995956421,None,1219.489995956421,None,-1,-1,1,3,284.4963073730469,1866.2409782409668,left,1223.5370769500732,None,JPO_pilot,icub,clamp,2021_Dec_17_1550,exp,2021.2.3,59.96102958520668,
left,go,2,0,2,0,6,2,38,0,1224.0422639846802,None,1,0.530613899230957,1224.0422639846802,None,1224.6486239433289,None,1225.6490459442139,1225.9975299835205,1225.6490459442139,1225.9975299835205,1224.6486239433289,None,1224.6486239433289,None,1224.6486239433289,None,-1,-1,1,3,284.64412689208984,2165.3690338134766,left,1228.9763867855072,None,JPO_pilot,icub,clamp,2021_Dec_17_1550,exp,2021.2.3,59.96102958520668,
right,stop,2,0,2,0,6,3,39,5,1229.4896349906921,None,1,0.41700291633605957,1229.4896349906921,None,1230.030762910843,None,1231.0448288917542,1231.385437965393,1231.0448288917542,1231.385437965393,1230.030762910843,None,1230.030762910843,None,1230.030762910843,None,1350,1350,1,3,242.2657012939453,-1.0,-1,1235.1567618846893,None,JPO_pilot,icub,clamp,2021_Dec_17_1550,exp,2021.2.3,59.96102958520668,
left,stop,2,0,2,0,6,4,40,2,1235.6893048286438,None,1,0.9836962223052979,1235.6893048286438,None,1236.795129776001,None,1237.7730917930603,1238.135398864746,1237.7730917930603,1238.135398864746,1236.795129776001,None,1236.795129776001,None,1236.795129776001,None,1350,1400,1,3,317.4736499786377,-1.0,-1,1241.9873728752136,None,JPO_pilot,icub,clamp,2021_Dec_17_1550,exp,2021.2.3,59.96102958520668,
right,go,2,0,2,0,6,5,41,3,1242.521028995514,None,1,0.7449309825897217,1242.521028995514,None,1243.3819279670715,None,1244.372683763504,1244.7264177799225,1244.372683763504,1244.7264177799225,1243.3819279670715,None,1243.3819279670715,None,1243.3819279670715,None,-1,-1,1,3,247.41363525390625,1871.7319965362549,right,1247.3797647953033,None,JPO_pilot,icub,clamp,2021_Dec_17_1550,exp,2021.2.3,59.96102958520668,
right,go,2,0,2,0,7,0,42,4,1247.900209903717,None,1,0.44870495796203613,1247.900209903717,None,1248.4393668174744,None,1249.4726469516754,1249.8333699703217,1249.4726469516754,1249.8333699703217,1248.4393668174744,None,1248.4393668174744,None,1248.4393668174744,None,-1,-1,1,3,334.2752456665039,2238.656997680664,right,1252.8880758285522,None,JPO_pilot,icub,clamp,2021_Dec_17_1550,exp,2021.2.3,59.96102958520668,
right,go,2,0,2,0,7,1,43,3,1253.4087858200073,None,1,0.5439190864562988,1253.4087858200073,None,1254.071739912033,None,1255.0848248004913,1255.4367849826813,1255.0848248004913,1255.4367849826813,1254.071739912033,None,1254.071739912033,None,1254.071739912033,None,-1,-1,1,3,130.523681640625,2279.50382232666,right,1258.3790709972382,None,JPO_pilot,icub,clamp,2021_Dec_17_1550,exp,2021.2.3,59.96102958520668,
right,stop,2,0,2,0,7,2,44,5,1258.8807969093323,None,1,0.5865509510040283,1258.8807969093323,None,1259.5768449306488,None,1260.5953857898712,1260.9539849758148,1260.5953857898712,1260.9539849758148,1259.5768449306488,None,1259.5768449306488,None,1259.5768449306488,None,1400,1400,1,3,252.44951248168945,-1.0,-1,1264.7377908229828,None,JPO_pilot,icub,clamp,2021_Dec_17_1550,exp,2021.2.3,59.96102958520668,
right,go,2,0,2,0,7,3,45,4,1265.2713959217072,None,1,0.6665041446685791,1265.2713959217072,None,1266.0696568489075,None,1267.0550949573517,1267.4110260009766,1267.0550949573517,1267.4110260009766,1266.0696568489075,None,1266.0696568489075,None,1266.0696568489075,None,-1,-1,1,3,380.4893493652344,2168.7355041503906,right,1270.486155986786,None,JPO_pilot,icub,clamp,2021_Dec_17_1550,exp,2021.2.3,59.96102958520668,
left,go,2,0,2,0,7,4,46,1,1271.0071997642517,None,1,0.5854129791259766,1271.0071997642517,None,1271.6731429100037,None,1272.6795618534088,1273.037363767624,1272.6795618534088,1273.037363767624,1271.6731429100037,None,1271.6731429100037,None,1271.6731429100037,None,-1,-1,1,3,399.6109962463379,1801.2194633483887,left,1275.7563288211823,None,JPO_pilot,icub,clamp,2021_Dec_17_1550,exp,2021.2.3,59.96102958520668,
left,go,2,0,2,0,7,5,47,0,1276.2744147777557,None,1,0.5876941680908203,1276.2744147777557,None,1276.9425988197327,None,1277.9325349330902,1278.2858428955078,1277.9325349330902,1278.2858428955078,1276.9425988197327,None,1276.9425988197327,None,1276.9425988197327,None,-1,-1,1,3,267.0867443084717,2010.4880332946777,left,1281.095053911209,None,JPO_pilot,icub,clamp,2021_Dec_17_1550,exp,2021.2.3,59.96102958520668,
right,stop,2,0,2,0,8,0,48,5,1281.6090378761292,None,1,0.5888161659240723,1281.6090378761292,None,1282.2733809947968,None,1283.283665895462,1283.6208548545837,1283.283665895462,1283.6208548545837,1282.2733809947968,None,1282.2733809947968,None,1282.2733809947968,None,,,0,3,-1.0,-1.0,-1,1284.1036839485168,None,JPO_pilot,icub,clamp,2021_Dec_17_1550,exp,2021.2.3,59.96102958520668,
left,stop,2,0,2,0,8,1,49,2,1284.633553981781,None,1,1.3953008651733398,1284.633553981781,None,1286.1112999916077,None,1287.1222977638245,1287.468023777008,1287.1222977638245,1287.468023777008,1286.1112999916077,None,1286.1112999916077,None,1286.1112999916077,None,1400,1450,1,3,420.97926139831543,-1.0,-1,1291.4182529449463,None,JPO_pilot,icub,clamp,2021_Dec_17_1550,exp,2021.2.3,59.96102958520668,
right,go,2,0,2,0,8,2,50,4,1291.9113578796387,None,1,0.6435050964355469,1291.9113578796387,None,1292.6483829021454,None,1293.634174823761,1293.995083808899,1293.634174823761,1293.995083808899,1292.6483829021454,None,1292.6483829021454,None,1292.6483829021454,None,-1,-1,1,3,350.7206439971924,1987.7378940582275,right,1296.8632638454437,None,JPO_pilot,icub,clamp,2021_Dec_17_1550,exp,2021.2.3,59.96102958520668,
left,go,2,0,2,0,8,3,51,0,1297.3846588134766,None,1,0.7178089618682861,1297.3846588134766,None,1298.1780669689178,None,1299.173258781433,1299.5266687870026,1299.173258781433,1299.5266687870026,1298.1780669689178,None,1298.1780669689178,None,1298.1780669689178,None,-1,-1,1,3,579.4625282287598,1725.2488136291504,left,1302.3658578395844,None,JPO_pilot,icub,clamp,2021_Dec_17_1550,exp,2021.2.3,59.96102958520668,
right,go,2,0,2,0,8,4,52,3,1302.8866968154907,None,1,0.676807165145874,1302.8866968154907,None,1303.6767659187317,None,1304.6912169456482,1305.0435149669647,1304.6912169456482,1305.0435149669647,1303.6767659187317,None,1303.6767659187317,None,1303.6767659187317,None,-1,-1,1,3,289.72387313842773,1820.6336498260498,right,1307.6814188957214,None,JPO_pilot,icub,clamp,2021_Dec_17_1550,exp,2021.2.3,59.96102958520668,
right,stop,2,0,2,0,8,5,53,5,1308.2155587673187,None,1,0.8437819480895996,1308.2155587673187,None,1309.1774928569794,None,1310.2021279335022,1310.5489308834076,1310.2021279335022,1310.5489308834076,1309.1774928569794,None,1309.1774928569794,None,1309.1774928569794,None,1450,1450,1,3,352.14805603027344,-1.0,-1,1314.4296588897705,None,JPO_pilot,icub,clamp,2021_Dec_17_1550,exp,2021.2.3,59.96102958520668,
left,stop,2,0,2,0,9,0,54,2,1314.9629287719727,None,1,0.3921220302581787,1314.9629287719727,None,1315.4509229660034,None,1316.459473848343,1316.810065984726,1316.459473848343,1316.810065984726,1315.4509229660034,None,1315.4509229660034,None,1315.4509229660034,None,1450,1500,1,3,471.6801643371582,-1.0,-1,1320.8066408634186,None,JPO_pilot,icub,clamp,2021_Dec_17_1550,exp,2021.2.3,59.96102958520668,
left,stop,2,0,2,0,9,1,55,2,1321.3378539085388,None,1,0.5129580497741699,1321.3378539085388,None,1321.9496049880981,None,1322.934954881668,1323.3046588897705,1322.934954881668,1323.3046588897705,1321.9496049880981,None,1321.9496049880981,None,1321.9496049880981,None,1500,1500,1,3,302.04129219055176,-1.0,-1,1327.1252307891846,None,JPO_pilot,icub,clamp,2021_Dec_17_1550,exp,2021.2.3,59.96102958520668,
right,go,2,0,2,0,9,2,56,3,1327.658621788025,None,1,0.5121250152587891,1327.658621788025,None,1328.2706508636475,None,1329.2551939487457,1329.6048958301544,1329.2551939487457,1329.6048958301544,1328.2706508636475,None,1328.2706508636475,None,1328.2706508636475,None,-1,-1,1,3,475.7723808288574,1779.1757583618164,right,1332.4040939807892,None,JPO_pilot,icub,clamp,2021_Dec_17_1550,exp,2021.2.3,59.96102958520668,
right,go,2,0,2,0,9,3,57,4,1332.9219279289246,None,1,0.677375078201294,1332.9219279289246,None,1333.674635887146,None,1334.6728439331055,1335.0249178409576,1334.6728439331055,1335.0249178409576,1333.674635887146,None,1333.674635887146,None,1333.674635887146,None,-1,-1,1,3,275.56443214416504,1718.3985710144043,right,1337.552316904068,None,JPO_pilot,icub,clamp,2021_Dec_17_1550,exp,2021.2.3,59.96102958520668,
right,stop,2,0,2,0,9,4,58,5,1338.0694379806519,None,1,0.6007370948791504,1338.0694379806519,None,1338.793613910675,None,1339.8104948997498,1340.1744349002838,1339.8104948997498,1340.1744349002838,1338.793613910675,None,1338.793613910675,None,1338.793613910675,None,1550,1500,1,3,337.85343170166016,-1.0,-1,1344.0050809383392,None,JPO_pilot,icub,clamp,2021_Dec_17_1550,exp,2021.2.3,59.96102958520668,
left,go,2,0,2,0,9,5,59,0,1344.5385439395905,None,1,0.5301198959350586,1344.5385439395905,None,1345.1495378017426,None,1346.1530578136444,1346.5155549049377,1346.1530578136444,1346.5155549049377,1345.1495378017426,None,1345.1495378017426,None,1345.1495378017426,None,-1,-1,1,3,334.2556953430176,1589.3046855926514,left,1348.9710319042206,None,JPO_pilot,icub,clamp,2021_Dec_17_1550,exp,2021.2.3,59.96102958520668,
left,go,2,0,2,0,10,0,60,0,1349.4892408847809,None,1,1.0786938667297363,1349.4892408847809,None,1350.6485528945923,None,1351.656065940857,1352.0125749111176,1351.656065940857,1352.0125749111176,1350.6485528945923,None,1350.6485528945923,None,1350.6485528945923,None,-1,-1,1,3,407.3224067687988,1951.8404006958008,left,1354.9048199653625,None,JPO_pilot,icub,clamp,2021_Dec_17_1550,exp,2021.2.3,59.96102958520668,
left,stop,2,0,2,0,10,1,61,2,1355.415326833725,None,1,0.8368740081787109,1355.415326833725,None,1356.332632780075,None,1357.3511018753052,1357.710658788681,1357.3511018753052,1357.710658788681,1356.332632780075,None,1356.332632780075,None,1356.332632780075,None,1550,1550,1,3,204.5128345489502,-1.0,-1,1361.4054617881775,None,JPO_pilot,icub,clamp,2021_Dec_17_1550,exp,2021.2.3,59.96102958520668,
right,stop,2,0,2,0,10,2,62,5,1361.937838792801,None,1,0.44883298873901367,1361.937838792801,None,1362.4887747764587,None,1363.4956438541412,1363.8466877937317,1363.4956438541412,1363.8466877937317,1362.4887747764587,None,1362.4887747764587,None,1362.4887747764587,None,1600,1550,0,3,403.72729301452637,1660.806655883789,right,1366.446350812912,None,JPO_pilot,icub,clamp,2021_Dec_17_1550,exp,2021.2.3,59.96102958520668,
right,go,2,0,2,0,10,3,63,3,1366.9389507770538,None,1,1.6803979873657227,1366.9389507770538,None,1368.7201359272003,None,1369.7474129199982,1370.0997169017792,1369.7474129199982,1370.0997169017792,1368.7201359272003,None,1368.7201359272003,None,1368.7201359272003,None,-1,-1,1,3,250.6239414215088,2518.873453140259,right,1373.3888399600983,None,JPO_pilot,icub,clamp,2021_Dec_17_1550,exp,2021.2.3,59.96102958520668,
left,go,2,0,2,0,10,4,64,1,1373.899552822113,None,1,0.40152907371520996,1373.899552822113,None,1374.3818409442902,None,1375.373524904251,1375.732605934143,1375.373524904251,1375.732605934143,1374.3818409442902,None,1374.3818409442902,None,1374.3818409442902,None,-1,-1,1,3,350.60691833496094,2106.612205505371,left,1378.7229788303375,None,JPO_pilot,icub,clamp,2021_Dec_17_1550,exp,2021.2.3,59.96102958520668,
left,go,2,0,2,0,10,5,65,1,1379.2423918247223,None,1,0.5132451057434082,1379.2423918247223,None,1379.843710899353,None,1380.8394558429718,1381.1948509216309,1380.8394558429718,1381.1948509216309,1379.843710899353,None,1379.843710899353,None,1379.843710899353,None,-1,-1,1,3,234.65538024902344,2083.672046661377,left,1384.039627790451,None,JPO_pilot,icub,clamp,2021_Dec_17_1550,exp,2021.2.3,59.96102958520668,
left,stop,2,0,2,0,11,0,66,2,1384.559987783432,None,1,0.5082619190216064,1384.559987783432,None,1385.1634469032288,None,1386.1624817848206,1386.5052089691162,1386.1624817848206,1386.5052089691162,1385.1634469032288,None,1385.1634469032288,None,1385.1634469032288,None,1600,1500,1,3,307.4007034301758,-1.0,-1,1390.3430109024048,None,JPO_pilot,icub,clamp,2021_Dec_17_1550,exp,2021.2.3,59.96102958520668,
right,go,2,0,2,0,11,1,67,4,1390.8749449253082,None,1,0.5045621395111084,1390.8749449253082,None,1391.4873859882355,None,1392.4601089954376,1392.8217198848724,1392.4601089954376,1392.8217198848724,1391.4873859882355,None,1391.4873859882355,None,1391.4873859882355,None,-1,-1,1,3,326.9076347351074,1840.0688171386719,right,1395.517017841339,None,JPO_pilot,icub,clamp,2021_Dec_17_1550,exp,2021.2.3,59.96102958520668,
right,go,2,0,2,0,11,2,68,4,1396.0206699371338,None,1,0.45255398750305176,1396.0206699371338,None,1396.5588657855988,None,1397.5635278224945,1397.9035949707031,1397.5635278224945,1397.9035949707031,1396.5588657855988,None,1396.5588657855988,None,1396.5588657855988,None,-1,-1,1,3,281.62193298339844,1604.8614978790283,right,1400.354675769806,None,JPO_pilot,icub,clamp,2021_Dec_17_1550,exp,2021.2.3,59.96102958520668,
right,stop,2,0,2,0,11,3,69,5,1400.8750717639923,None,1,0.528904914855957,1400.8750717639923,None,1401.4793238639832,None,1402.4889469146729,1402.8316087722778,1402.4889469146729,1402.8316087722778,1401.4793238639832,None,1401.4793238639832,None,1401.4793238639832,None,1650,1500,1,3,363.0261421203613,-1.0,-1,1406.7487258911133,None,JPO_pilot,icub,clamp,2021_Dec_17_1550,exp,2021.2.3,59.96102958520668,
left,go,2,0,2,0,11,4,70,0,1407.280925989151,None,1,0.5305309295654297,1407.280925989151,None,1407.892455816269,None,1408.8788588047028,1409.2055118083954,1408.8788588047028,1409.2055118083954,1407.892455816269,None,1407.892455816269,None,1407.892455816269,None,-1,-1,1,3,448.5287666320801,1754.5804977416992,left,1411.9723408222198,None,JPO_pilot,icub,clamp,2021_Dec_17_1550,exp,2021.2.3,59.96102958520668,
right,go,2,0,2,0,11,5,71,3,1412.4927198886871,None,1,0.5133471488952637,1412.4927198886871,None,1413.096920967102,None,1414.1196098327637,1414.4736638069153,1414.1196098327637,1414.4736638069153,1413.096920967102,None,1413.096920967102,None,1413.096920967102,None,-1,-1,1,3,302.07157135009766,1648.5967636108398,right,1416.9446659088135,None,JPO_pilot,icub,clamp,2021_Dec_17_1550,exp,2021.2.3,59.96102958520668,
left,go,2,0,2,0,12,0,72,0,1417.462415933609,None,1,0.650871992111206,1417.462415933609,None,1418.2415018081665,None,1419.2532098293304,1419.6002388000488,1419.2532098293304,1419.6002388000488,1418.2415018081665,None,1418.2415018081665,None,1418.2415018081665,None,-1,-1,1,3,244.74072456359863,1777.353048324585,left,1422.1738278865814,None,JPO_pilot,icub,clamp,2021_Dec_17_1550,exp,2021.2.3,59.96102958520668,
left,go,2,0,2,0,12,1,73,1,1422.6768729686737,None,1,0.4860539436340332,1422.6768729686737,None,1423.2824199199677,None,1424.2729578018188,1424.623272895813,1424.2729578018188,1424.623272895813,1423.2824199199677,None,1423.2824199199677,None,1423.2824199199677,None,-1,-1,1,3,359.77816581726074,2097.7816581726074,left,1427.612613916397,None,JPO_pilot,icub,clamp,2021_Dec_17_1550,exp,2021.2.3,59.96102958520668,
right,go,2,0,2,0,12,2,74,4,1428.1377158164978,None,1,0.6132779121398926,1428.1377158164978,None,1428.8660879135132,None,1429.8671097755432,1430.216430902481,1429.8671097755432,1430.216430902481,1428.8660879135132,None,1428.8660879135132,None,1428.8660879135132,None,-1,-1,1,3,304.86416816711426,1873.4638690948486,right,1432.928270816803,None,JPO_pilot,icub,clamp,2021_Dec_17_1550,exp,2021.2.3,59.96102958520668,
left,go,2,0,2,0,12,3,75,1,1433.4471209049225,None,1,0.6716310977935791,1433.4471209049225,None,1434.2375349998474,None,1435.2438869476318,1435.5883898735046,1435.2438869476318,1435.5883898735046,1434.2375349998474,None,1434.2375349998474,None,1434.2375349998474,None,-1,-1,1,3,443.6197280883789,2135.1611614227295,left,1438.7165868282318,None,JPO_pilot,icub,clamp,2021_Dec_17_1550,exp,2021.2.3,59.96102958520668,
left,go,2,0,2,0,12,4,76,0,1439.23375082016,None,1,0.6100401878356934,1439.23375082016,None,1439.962926864624,None,1440.9741308689117,1441.3399448394775,1440.9741308689117,1441.3399448394775,1439.962926864624,None,1439.962926864624,None,1439.962926864624,None,-1,-1,1,3,367.4895763397217,2363.189697265625,left,1444.6036648750305,None,JPO_pilot,icub,clamp,2021_Dec_17_1550,exp,2021.2.3,59.96102958520668,
left,stop,2,0,2,0,12,5,77,2,1445.1093528270721,None,1,0.5487399101257324,1445.1093528270721,None,1445.7725648880005,None,1446.765466928482,1447.089912891388,1446.765466928482,1447.089912891388,1445.7725648880005,None,1445.7725648880005,None,1445.7725648880005,None,1650,1550,1,3,337.1567726135254,-1.0,-1,1450.992948770523,None,JPO_pilot,icub,clamp,2021_Dec_17_1550,exp,2021.2.3,59.96102958520668,
left,go,3,0,3,0,0,0,0,0,1466.6863088607788,None,1,12.683487892150879,1466.6863088607788,None,1479.4710338115692,None,1480.4944097995758,1480.8646178245544,1480.4944097995758,1480.8646178245544,1479.4710338115692,None,1479.4710338115692,None,1479.4710338115692,None,-1,-1,1,3,443.0654048919678,2028.782606124878,left,1483.8282339572906,None,JPO_pilot,icub,clamp,2021_Dec_17_1550,exp,2021.2.3,59.96102958520668,
right,go,3,0,3,0,0,1,1,3,1484.3643159866333,None,1,0.314471960067749,1484.3643159866333,None,1484.7835388183594,None,1485.8133919239044,1486.1759557724,1485.8133919239044,1486.1759557724,1484.7835388183594,None,1484.7835388183594,None,1484.7835388183594,None,-1,-1,1,3,301.18417739868164,1835.6382846832275,right,1488.7956128120422,None,JPO_pilot,icub,clamp,2021_Dec_17_1550,exp,2021.2.3,59.96102958520668,
left,go,3,0,3,0,0,2,2,0,1489.3029849529266,None,1,0.41651296615600586,1489.3029849529266,None,1489.843246936798,None,1490.8455579280853,1491.2056229114532,1490.8455579280853,1491.2056229114532,1489.843246936798,None,1489.843246936798,None,1489.843246936798,None,-1,-1,1,3,274.9981880187988,1772.2172737121582,left,1493.7793548107147,None,JPO_pilot,icub,clamp,2021_Dec_17_1550,exp,2021.2.3,59.96102958520668,
right,go,3,0,3,0,0,3,3,4,1494.2896049022675,None,1,0.41822099685668945,1494.2896049022675,None,1494.8321928977966,None,1495.853687763214,1496.2153968811035,1495.853687763214,1496.2153968811035,1494.8321928977966,None,1494.8321928977966,None,1494.8321928977966,None,-1,-1,1,3,311.9940757751465,1685.1222515106201,right,1498.7281849384308,None,JPO_pilot,icub,clamp,2021_Dec_17_1550,exp,2021.2.3,59.96102958520668,
left,go,3,0,3,0,0,4,4,0,1499.2609329223633,None,1,0.40979886054992676,1499.2609329223633,None,1499.7463898658752,None,1500.7547628879547,1501.1185348033905,1500.7547628879547,1501.1185348033905,1499.7463898658752,None,1499.7463898658752,None,1499.7463898658752,None,-1,-1,1,3,384.8531246185303,1788.1269454956055,left,1503.817361831665,None,JPO_pilot,icub,clamp,2021_Dec_17_1550,exp,2021.2.3,59.96102958520668,
right,go,3,0,3,0,0,5,5,3,1504.353040933609,None,1,1.3654799461364746,1504.353040933609,None,1505.825565814972,None,1506.8466348648071,1507.2029058933258,1506.8466348648071,1507.2029058933258,1505.825565814972,None,1505.825565814972,None,1505.825565814972,None,-1,-1,1,3,345.23820877075195,1584.0773582458496,right,1509.6534399986267,None,JPO_pilot,icub,clamp,2021_Dec_17_1550,exp,2021.2.3,59.96102958520668,
right,stop,3,0,3,0,1,0,6,5,1510.1580319404602,None,1,0.6198360919952393,1510.1580319404602,None,1510.8847389221191,None,1511.8946278095245,1512.2437589168549,1511.8946278095245,1512.2437589168549,1510.8847389221191,None,1510.8847389221191,None,1510.8847389221191,None,1700,1550,0,3,286.56983375549316,1791.7354106903076,right,1514.8454759120941,None,JPO_pilot,icub,clamp,2021_Dec_17_1550,exp,2021.2.3,59.96102958520668,
right,go,3,0,3,0,1,1,7,4,1515.3651897907257,None,1,1.4440760612487793,1515.3651897907257,None,1516.900094985962,None,1517.8888399600983,1518.2440259456635,1517.8888399600983,1518.2440259456635,1516.900094985962,None,1516.900094985962,None,1516.900094985962,None,-1,-1,1,3,426.26452445983887,2160.703182220459,right,1521.3897688388824,None,JPO_pilot,icub,clamp,2021_Dec_17_1550,exp,2021.2.3,59.96102958520668,
right,stop,3,0,3,0,1,2,8,5,1521.926612854004,None,1,0.6111760139465332,1521.926612854004,None,1522.6560797691345,None,1523.6687228679657,1524.0256757736206,1523.6687228679657,1524.0256757736206,1522.6560797691345,None,1522.6560797691345,None,1522.6560797691345,None,1700,1500,1,3,403.5763740539551,-1.0,-1,1527.950220823288,None,JPO_pilot,icub,clamp,2021_Dec_17_1550,exp,2021.2.3,59.96102958520668,
right,go,3,0,3,0,1,3,9,3,1528.4820997714996,None,1,0.6170699596405029,1528.4820997714996,None,1529.217393875122,None,1530.2055099010468,1530.565840959549,1530.2055099010468,1530.565840959549,1529.217393875122,None,1529.217393875122,None,1529.217393875122,None,-1,-1,1,3,501.5826225280762,2082.674503326416,right,1533.674370765686,None,JPO_pilot,icub,clamp,2021_Dec_17_1550,exp,2021.2.3,59.96102958520668,
left,go,3,0,3,0,1,4,10,0,1534.1913697719574,None,1,0.4758589267730713,1534.1913697719574,None,1534.785011768341,None,1535.7819378376007,1536.1494119167328,1535.7819378376007,1536.1494119167328,1534.785011768341,None,1534.785011768341,None,1534.785011768341,None,-1,-1,1,3,276.39222145080566,2137.460470199585,left,1539.094804763794,None,JPO_pilot,icub,clamp,2021_Dec_17_1550,exp,2021.2.3,59.96102958520668,
left,stop,3,0,3,0,1,5,11,2,1539.5974459648132,None,1,0.5475308895111084,1539.5974459648132,None,1540.2647008895874,None,1541.2652509212494,1541.6042947769165,1541.2652509212494,1541.6042947769165,1540.2647008895874,None,1540.2647008895874,None,1540.2647008895874,None,1700,1550,1,3,425.07195472717285,-1.0,-1,1545.5660688877106,None,JPO_pilot,icub,clamp,2021_Dec_17_1550,exp,2021.2.3,59.96102958520668,
