Holder,Action,blocks.thisRepN,blocks.thisTrialN,blocks.thisN,blocks.thisIndex,trials.thisRepN,trials.thisTrialN,trials.thisN,trials.thisIndex,start_msg.started,start_msg.stopped,RespButton_start_trial.keys,RespButton_start_trial.rt,RespButton_start_trial.started,RespButton_start_trial.stopped,GREEN.started,GREEN.stopped,LEFT_RED.started,LEFT_RED.stopped,RIGHT_RED.started,RIGHT_RED.stopped,LEFT_CIRCLE.started,LEFT_CIRCLE.stopped,CENTER_CIRCLE.started,CENTER_CIRCLE.stopped,RIGHT_CIRCLE.started,RIGHT_CIRCLE.stopped,SOUND_DELAY_MS_LEFT,SOUND_DELAY_MS_RIGHT,CORRECT,VALIDITY,RELEASE_TIME,TOUCH_TIME,BOTTLE_RESPONSE_POSITION,text.started,text.stopped,pid,left_position,right_position,date,expName,psychopyVersion,frameRate,
left,go,0,0,0,0,0,0,0,1,25.71074104309082,None,1,5.728523015975952,25.71074104309082,None,31.558840036392212,None,32.58858299255371,32.94654107093811,32.58858299255371,32.94654107093811,31.558840036392212,None,31.558840036392212,None,31.558840036392212,None,-1,-1,1,3,357.53726959228516,544.975996017456,left,34.37443518638611,None,kyveli_pilot,icub,clamp,2021_Dec_17_1153,exp,2021.2.3,59.99988555930031,
right,go,0,0,0,0,0,1,1,3,34.87493705749512,None,1,0.4152700901031494,34.87493705749512,None,35.4141800403595,None,36.43222498893738,36.78714299201965,36.43222498893738,36.78714299201965,35.4141800403595,None,35.4141800403595,None,35.4141800403595,None,-1,-1,1,3,262.7387046813965,641.4635181427002,right,38.211503982543945,None,kyveli_pilot,icub,clamp,2021_Dec_17_1153,exp,2021.2.3,59.99988555930031,
right,stop,0,0,0,0,0,2,2,5,38.74116396903992,None,1,0.2272019386291504,38.74116396903992,None,39.09608006477356,None,40.124046087265015,40.468670129776,40.124046087265015,40.468670129776,39.09608006477356,None,39.09608006477356,None,39.09608006477356,None,500,500,0,3,482.38682746887207,545.73655128479,right,42.03451204299927,None,kyveli_pilot,icub,clamp,2021_Dec_17_1153,exp,2021.2.3,59.99988555930031,
right,go,0,0,0,0,0,3,3,3,42.5511519908905,None,1,0.4600670337677002,42.5511519908905,None,43.09171509742737,None,44.09055519104004,44.441930055618286,44.09055519104004,44.441930055618286,43.09171509742737,None,43.09171509742737,None,43.09171509742737,None,-1,-1,1,3,195.27578353881836,541.5003299713135,right,45.74255418777466,None,kyveli_pilot,icub,clamp,2021_Dec_17_1153,exp,2021.2.3,59.99988555930031,
right,go,0,0,0,0,0,4,4,4,46.26266598701477,None,1,0.4244959354400635,46.26266598701477,None,46.80487608909607,None,47.82515001296997,48.17407512664795,47.82515001296997,48.17407512664795,46.80487608909607,None,46.80487608909607,None,46.80487608909607,None,,,0,3,3000.2264976501465,-1.0,-1,51.70933413505554,None,kyveli_pilot,icub,clamp,2021_Dec_17_1153,exp,2021.2.3,59.99988555930031,
left,stop,0,0,0,0,0,5,5,2,52.22781014442444,None,1,0.8386030197143555,52.22781014442444,None,53.14951300621033,None,54.12168002128601,54.48053503036499,54.12168002128601,54.48053503036499,53.14951300621033,None,53.14951300621033,None,53.14951300621033,None,500,450,0,3,733.1805229187012,559.4494342803955,left,56.34179401397705,None,kyveli_pilot,icub,clamp,2021_Dec_17_1153,exp,2021.2.3,59.99988555930031,
left,go,0,0,0,0,1,0,6,1,56.857866048812866,None,1,0.7809269428253174,56.857866048812866,None,57.76646614074707,None,58.777132987976074,59.133116006851196,58.777132987976074,59.133116006851196,57.76646614074707,None,57.76646614074707,None,57.76646614074707,None,-1,-1,1,3,257.83371925354004,736.4482879638672,left,60.659600019454956,None,kyveli_pilot,icub,clamp,2021_Dec_17_1153,exp,2021.2.3,59.99988555930031,
left,stop,0,0,0,0,1,1,7,2,61.16812014579773,None,1,0.5090959072113037,61.16812014579773,None,61.77253007888794,None,62.783416986465454,63.14254713058472,62.783416986465454,63.14254713058472,61.77253007888794,None,61.77253007888794,None,61.77253007888794,None,450,450,1,3,460.0346088409424,-1.0,-1,67.13614201545715,None,kyveli_pilot,icub,clamp,2021_Dec_17_1153,exp,2021.2.3,59.99988555930031,
right,stop,0,0,0,0,1,2,8,5,67.66993498802185,None,1,0.9664289951324463,67.66993498802185,None,68.77265310287476,None,69.74389100074768,70.10054397583008,69.74389100074768,70.10054397583008,68.77265310287476,None,68.77265310287476,None,68.77265310287476,None,500,450,1,3,269.65951919555664,-1.0,-1,73.93787097930908,None,kyveli_pilot,icub,clamp,2021_Dec_17_1153,exp,2021.2.3,59.99988555930031,
left,go,0,0,0,0,1,3,9,0,74.43683815002441,None,1,0.6834361553192139,74.43683815002441,None,75.23418498039246,None,76.21412515640259,76.57047009468079,76.21412515640259,76.57047009468079,75.23418498039246,None,75.23418498039246,None,75.23418498039246,None,,,0,3,-1.0,-1.0,-1,76.92831015586853,None,kyveli_pilot,icub,clamp,2021_Dec_17_1153,exp,2021.2.3,59.99988555930031,
right,go,0,0,0,0,1,4,10,3,77.42118811607361,None,1,1.615920066833496,77.42118811607361,None,79.12258410453796,None,80.14367413520813,80.49424695968628,80.14367413520813,80.49424695968628,79.12258410453796,None,79.12258410453796,None,79.12258410453796,None,-1,-1,1,3,358.52980613708496,673.3860969543457,right,82.06371307373047,None,kyveli_pilot,icub,clamp,2021_Dec_17_1153,exp,2021.2.3,59.99988555930031,
right,go,0,0,0,0,1,5,11,4,82.56298112869263,None,1,0.606895923614502,82.56298112869263,None,83.28891015052795,None,84.30737400054932,84.65865802764893,84.30737400054932,84.65865802764893,83.28891015052795,None,83.28891015052795,None,83.28891015052795,None,-1,-1,1,3,318.7119960784912,723.5515117645264,right,86.23230600357056,None,kyveli_pilot,icub,clamp,2021_Dec_17_1153,exp,2021.2.3,59.99988555930031,
right,go,0,0,0,0,2,0,12,3,86.7478621006012,None,1,0.2831230163574219,86.7478621006012,None,87.10625004768372,None,88.11781001091003,88.46795010566711,88.11781001091003,88.46795010566711,87.10625004768372,None,87.10625004768372,None,87.10625004768372,None,-1,-1,1,3,559.3361854553223,731.7342758178711,right,90.28437805175781,None,kyveli_pilot,icub,clamp,2021_Dec_17_1153,exp,2021.2.3,59.99988555930031,
left,stop,0,0,0,0,2,1,13,2,90.80430817604065,None,1,0.5374059677124023,90.80430817604065,None,91.47091817855835,None,92.47213912010193,92.7934730052948,92.47213912010193,92.7934730052948,91.47091817855835,None,91.47091817855835,None,91.47091817855835,None,500,500,0,3,501.10602378845215,661.6349220275879,left,94.55048608779907,None,kyveli_pilot,icub,clamp,2021_Dec_17_1153,exp,2021.2.3,59.99988555930031,
right,go,0,0,0,0,2,2,14,3,95.06948614120483,None,1,0.23609399795532227,95.06948614120483,None,95.40787315368652,None,96.41556906700134,96.77838802337646,96.41556906700134,96.77838802337646,95.40787315368652,None,95.40787315368652,None,95.40787315368652,None,-1,-1,1,3,456.47525787353516,782.6294898986816,right,98.55468201637268,None,kyveli_pilot,icub,clamp,2021_Dec_17_1153,exp,2021.2.3,59.99988555930031,
right,stop,0,0,0,0,2,3,15,5,99.05462503433228,None,1,0.6373391151428223,99.05462503433228,None,99.78228902816772,None,100.78614115715027,101.13408613204956,100.78614115715027,101.13408613204956,99.78228902816772,None,99.78228902816772,None,99.78228902816772,None,450,500,0,3,287.72735595703125,643.6135768890381,right,102.60058617591858,None,kyveli_pilot,icub,clamp,2021_Dec_17_1153,exp,2021.2.3,59.99988555930031,
right,go,0,0,0,0,2,4,16,3,103.11647605895996,None,1,0.16985321044921875,103.11647605895996,None,103.41043019294739,None,104.40009617805481,104.7449381351471,104.40009617805481,104.7449381351471,103.41043019294739,None,103.41043019294739,None,103.41043019294739,None,-1,-1,1,3,278.1846523284912,673.8972663879395,right,106.27285504341125,None,kyveli_pilot,icub,clamp,2021_Dec_17_1153,exp,2021.2.3,59.99988555930031,
left,go,0,0,0,0,2,5,17,0,106.8037440776825,None,1,0.37587404251098633,106.8037440776825,None,107.28615307807922,None,108.27473306655884,108.62391805648804,108.27473306655884,108.62391805648804,107.28615307807922,None,107.28615307807922,None,107.28615307807922,None,-1,-1,1,3,485.19158363342285,577.9142379760742,left,110.23744606971741,None,kyveli_pilot,icub,clamp,2021_Dec_17_1153,exp,2021.2.3,59.99988555930031,
left,go,0,0,0,0,3,0,18,1,110.75634002685547,None,1,0.4022231101989746,110.75634002685547,None,111.28110218048096,None,112.2989010810852,112.65335702896118,112.2989010810852,112.65335702896118,111.28110218048096,None,111.28110218048096,None,111.28110218048096,None,-1,-1,1,3,208.8315486907959,449.324369430542,left,113.84037613868713,None,kyveli_pilot,icub,clamp,2021_Dec_17_1153,exp,2021.2.3,59.99988555930031,
left,go,0,0,0,0,3,1,19,1,114.36323118209839,None,1,0.4204831123352051,114.36323118209839,None,114.90245413780212,None,115.89748311042786,116.26906609535217,115.89748311042786,116.26906609535217,114.90245413780212,None,114.90245413780212,None,114.90245413780212,None,-1,-1,1,3,120.1777458190918,622.6902008056641,left,117.54142713546753,None,kyveli_pilot,icub,clamp,2021_Dec_17_1153,exp,2021.2.3,59.99988555930031,
right,stop,0,0,0,0,3,2,20,5,118.06186699867249,None,1,0.3943619728088379,118.06186699867249,None,118.5419499874115,None,119.54071402549744,119.90368318557739,119.54071402549744,119.90368318557739,118.5419499874115,None,118.5419499874115,None,118.5419499874115,None,450,450,0,3,336.2915515899658,504.0764808654785,right,121.27752614021301,None,kyveli_pilot,icub,clamp,2021_Dec_17_1153,exp,2021.2.3,59.99988555930031,
left,go,0,0,0,0,3,3,21,1,121.80749106407166,None,1,0.3801391124725342,121.80749106407166,None,122.2888240814209,None,123.29191899299622,123.64746499061584,123.29191899299622,123.64746499061584,122.2888240814209,None,122.2888240814209,None,122.2888240814209,None,-1,-1,1,3,547.5277900695801,542.6218509674072,left,125.25809001922607,None,kyveli_pilot,icub,clamp,2021_Dec_17_1153,exp,2021.2.3,59.99988555930031,
right,stop,0,0,0,0,3,4,22,5,125.76279997825623,None,1,0.4128141403198242,125.76279997825623,None,126.29947519302368,None,127.33030200004578,127.68287706375122,127.33030200004578,127.68287706375122,126.29947519302368,None,126.29947519302368,None,126.29947519302368,None,450,400,1,3,464.2200469970703,-1.0,-1,131.6399290561676,None,kyveli_pilot,icub,clamp,2021_Dec_17_1153,exp,2021.2.3,59.99988555930031,
left,go,0,0,0,0,3,5,23,1,132.17364406585693,None,1,0.7804222106933594,132.17364406585693,None,133.0346131324768,None,134.0148470401764,134.3728539943695,134.0148470401764,134.3728539943695,133.0346131324768,None,133.0346131324768,None,133.0346131324768,None,-1,-1,1,3,494.9648380279541,428.74908447265625,left,135.82787799835205,None,kyveli_pilot,icub,clamp,2021_Dec_17_1153,exp,2021.2.3,59.99988555930031,
left,go,0,0,0,0,4,0,24,0,136.33011412620544,None,1,0.3827190399169922,136.33011412620544,None,136.81423616409302,None,137.83602905273438,138.17011713981628,137.83602905273438,138.17011713981628,136.81423616409302,None,136.81423616409302,None,136.81423616409302,None,-1,-1,1,3,462.92734146118164,620.0621128082275,left,139.78636717796326,None,kyveli_pilot,icub,clamp,2021_Dec_17_1153,exp,2021.2.3,59.99988555930031,
left,go,0,0,0,0,4,1,25,0,140.28769516944885,None,1,0.5138330459594727,140.28769516944885,None,140.89245796203613,None,141.89208817481995,142.2557771205902,141.89208817481995,142.2557771205902,140.89245796203613,None,140.89245796203613,None,140.89245796203613,None,-1,-1,1,3,525.5968570709229,519.5059776306152,left,143.83117699623108,None,kyveli_pilot,icub,clamp,2021_Dec_17_1153,exp,2021.2.3,59.99988555930031,
left,stop,0,0,0,0,4,2,26,2,144.34288597106934,None,1,0.5276618003845215,144.34288597106934,None,144.94607210159302,None,145.9492461681366,146.2983591556549,145.9492461681366,146.2983591556549,144.94607210159302,None,144.94607210159302,None,144.94607210159302,None,450,450,0,3,517.4028873443604,594.9385166168213,left,147.93439412117004,None,kyveli_pilot,icub,clamp,2021_Dec_17_1153,exp,2021.2.3,59.99988555930031,
right,stop,0,0,0,0,4,3,27,5,148.44268918037415,None,1,0.23107600212097168,148.44268918037415,None,148.79862713813782,None,149.80695009231567,150.17153310775757,149.80695009231567,150.17153310775757,148.79862713813782,None,148.79862713813782,None,148.79862713813782,None,400,450,1,3,325.5348205566406,-1.0,-1,154.03868508338928,None,kyveli_pilot,icub,clamp,2021_Dec_17_1153,exp,2021.2.3,59.99988555930031,
left,go,0,0,0,0,4,4,28,1,154.53404211997986,None,1,0.5499081611633301,154.53404211997986,None,155.20847702026367,None,156.18460702896118,156.5349681377411,156.18460702896118,156.5349681377411,155.20847702026367,None,155.20847702026367,None,155.20847702026367,None,,,0,3,3000.171422958374,-1.0,-1,160.1149320602417,None,kyveli_pilot,icub,clamp,2021_Dec_17_1153,exp,2021.2.3,59.99988555930031,
left,stop,0,0,0,0,4,5,29,2,160.64223217964172,None,1,1.4718148708343506,160.64223217964172,None,162.2489950656891,None,163.23176312446594,163.59458208084106,163.23176312446594,163.59458208084106,162.2489950656891,None,162.2489950656891,None,162.2489950656891,None,400,500,1,3,568.8426494598389,-1.0,-1,167.70727014541626,None,kyveli_pilot,icub,clamp,2021_Dec_17_1153,exp,2021.2.3,59.99988555930031,
left,go,0,0,0,0,5,0,30,1,168.2236680984497,None,1,0.9143350124359131,168.2236680984497,None,169.26465702056885,None,170.24716114997864,170.6025791168213,170.24716114997864,170.6025791168213,169.26465702056885,None,169.26465702056885,None,169.26465702056885,None,-1,-1,1,3,493.4253692626953,479.5341491699219,left,172.10307216644287,None,kyveli_pilot,icub,clamp,2021_Dec_17_1153,exp,2021.2.3,59.99988555930031,
right,go,0,0,0,0,5,1,31,4,172.60786414146423,None,1,0.5667989253997803,172.60786414146423,None,173.2749741077423,None,174.28246307373047,174.63689804077148,174.28246307373047,174.63689804077148,173.2749741077423,None,173.2749741077423,None,173.2749741077423,None,-1,-1,1,3,430.4790496826172,536.8266105651855,right,176.13595604896545,None,kyveli_pilot,icub,clamp,2021_Dec_17_1153,exp,2021.2.3,59.99988555930031,
right,stop,0,0,0,0,5,2,32,5,176.65295505523682,None,1,0.48891401290893555,176.65295505523682,None,177.2583200931549,None,178.26164197921753,178.61582398414612,178.26164197921753,178.61582398414612,177.2583200931549,None,177.2583200931549,None,177.2583200931549,None,450,500,1,3,348.3405113220215,-1.0,-1,182.4997169971466,None,kyveli_pilot,icub,clamp,2021_Dec_17_1153,exp,2021.2.3,59.99988555930031,
right,go,0,0,0,0,5,3,33,4,182.9946789741516,None,1,0.6512131690979004,182.9946789741516,None,183.7267711162567,None,184.70141315460205,185.05664014816284,184.70141315460205,185.05664014816284,183.7267711162567,None,183.7267711162567,None,183.7267711162567,None,-1,-1,1,3,326.1895179748535,575.6332874298096,right,186.5302050113678,None,kyveli_pilot,icub,clamp,2021_Dec_17_1153,exp,2021.2.3,59.99988555930031,
left,go,0,0,0,0,5,4,34,0,187.0541160106659,None,1,0.43535304069519043,187.0541160106659,None,187.5959870815277,None,188.61474418640137,188.97695112228394,188.61474418640137,188.97695112228394,187.5959870815277,None,187.5959870815277,None,187.5959870815277,None,-1,-1,1,3,446.9575881958008,641.4790153503418,left,190.59291195869446,None,kyveli_pilot,icub,clamp,2021_Dec_17_1153,exp,2021.2.3,59.99988555930031,
left,go,0,0,0,0,5,5,35,0,191.1234769821167,None,1,0.3690509796142578,191.1234769821167,None,191.60347604751587,None,192.61892700195312,192.98340511322021,192.61892700195312,192.98340511322021,191.60347604751587,None,191.60347604751587,None,191.60347604751587,None,-1,-1,1,3,439.41783905029297,677.959680557251,left,194.6328830718994,None,kyveli_pilot,icub,clamp,2021_Dec_17_1153,exp,2021.2.3,59.99988555930031,
left,stop,0,0,0,0,6,0,36,2,195.16073513031006,None,1,0.37575197219848633,195.16073513031006,None,195.64290308952332,None,196.63926315307617,196.99060797691345,196.63926315307617,196.99060797691345,195.64290308952332,None,195.64290308952332,None,195.64290308952332,None,450,550,0,3,401.11660957336426,532.7095985412598,left,198.45608806610107,None,kyveli_pilot,icub,clamp,2021_Dec_17_1153,exp,2021.2.3,59.99988555930031,
right,go,0,0,0,0,6,1,37,4,198.98095417022705,None,1,0.3756241798400879,198.98095417022705,None,199.4575171470642,None,200.46139407157898,200.81877613067627,200.46139407157898,200.81877613067627,199.4575171470642,None,199.4575171470642,None,199.4575171470642,None,-1,-1,1,3,382.7815055847168,585.5798721313477,right,202.3207881450653,None,kyveli_pilot,icub,clamp,2021_Dec_17_1153,exp,2021.2.3,59.99988555930031,
right,go,0,0,0,0,6,2,38,4,202.83728098869324,None,1,0.5440428256988525,202.83728098869324,None,203.5026831626892,None,204.51190209388733,204.85332417488098,204.51190209388733,204.85332417488098,203.5026831626892,None,203.5026831626892,None,203.5026831626892,None,-1,-1,1,3,711.5166187286377,536.2458229064941,right,206.6242220401764,None,kyveli_pilot,icub,clamp,2021_Dec_17_1153,exp,2021.2.3,59.99988555930031,
right,go,0,0,0,0,6,3,39,3,207.1317150592804,None,1,0.29382991790771484,207.1317150592804,None,207.54946613311768,None,208.57649898529053,208.93375897407532,208.57649898529053,208.93375897407532,207.54946613311768,None,207.54946613311768,None,207.54946613311768,None,-1,-1,1,3,366.70565605163574,637.8512382507324,right,210.42487812042236,None,kyveli_pilot,icub,clamp,2021_Dec_17_1153,exp,2021.2.3,59.99988555930031,
left,go,0,0,0,0,6,4,40,0,210.95475101470947,None,1,0.3417050838470459,210.95475101470947,None,211.37180995941162,None,212.38038301467896,212.7113959789276,212.38038301467896,212.7113959789276,211.37180995941162,None,211.37180995941162,None,211.37180995941162,None,-1,-1,1,3,484.935998916626,684.434175491333,left,214.41186714172363,None,kyveli_pilot,icub,clamp,2021_Dec_17_1153,exp,2021.2.3,59.99988555930031,
left,go,0,0,0,0,6,5,41,1,214.9228060245514,None,1,0.5547118186950684,214.9228060245514,None,215.5833740234375,None,216.58770513534546,216.9544701576233,216.58770513534546,216.9544701576233,215.5833740234375,None,215.5833740234375,None,215.5833740234375,None,-1,-1,1,3,336.3821506500244,809.0991973876953,left,218.6317479610443,None,kyveli_pilot,icub,clamp,2021_Dec_17_1153,exp,2021.2.3,59.99988555930031,
left,stop,0,0,0,0,7,0,42,2,219.1341371536255,None,1,0.5750119686126709,219.1341371536255,None,219.7946491241455,None,220.81109309196472,221.17205810546875,220.81109309196472,221.17205810546875,219.7946491241455,None,219.7946491241455,None,219.7946491241455,None,400,550,1,3,2689.1534328460693,-1.0,-1,227.37429809570312,None,kyveli_pilot,icub,clamp,2021_Dec_17_1153,exp,2021.2.3,59.99988555930031,
left,stop,0,0,0,0,7,1,43,2,227.90580105781555,None,1,0.9758999347686768,227.90580105781555,None,229.01216316223145,None,229.9928150177002,230.35752606391907,229.9928150177002,230.35752606391907,229.01216316223145,None,229.01216316223145,None,229.01216316223145,None,,,0,3,-1.0,-1.0,-1,230.7891139984131,None,kyveli_pilot,icub,clamp,2021_Dec_17_1153,exp,2021.2.3,59.99988555930031,
right,stop,0,0,0,0,7,2,44,5,231.30556511878967,None,1,1.7140300273895264,231.30556511878967,None,233.13459610939026,None,234.16715717315674,234.50671410560608,234.16715717315674,234.50671410560608,233.13459610939026,None,233.13459610939026,None,233.13459610939026,None,450,550,0,3,616.0204410552979,540.7829284667969,right,236.19615507125854,None,kyveli_pilot,icub,clamp,2021_Dec_17_1153,exp,2021.2.3,59.99988555930031,
left,go,0,0,0,0,7,3,45,1,236.71392512321472,None,1,0.46737217903137207,236.71392512321472,None,237.2567219734192,None,238.2624650001526,238.60915112495422,238.2624650001526,238.60915112495422,237.2567219734192,None,237.2567219734192,None,237.2567219734192,None,-1,-1,1,3,438.62223625183105,589.3218517303467,left,240.16994500160217,None,kyveli_pilot,icub,clamp,2021_Dec_17_1153,exp,2021.2.3,59.99988555930031,
left,go,0,0,0,0,7,4,46,0,240.66839218139648,None,1,0.4440300464630127,240.66839218139648,None,241.21365404129028,None,242.24210715293884,242.60082602500916,242.24210715293884,242.60082602500916,241.21365404129028,None,241.21365404129028,None,241.21365404129028,None,-1,-1,1,3,534.5697402954102,385.512113571167,left,244.02964615821838,None,kyveli_pilot,icub,clamp,2021_Dec_17_1153,exp,2021.2.3,59.99988555930031,
right,go,0,0,0,0,7,5,47,4,244.55899810791016,None,1,0.36341404914855957,244.55899810791016,None,245.03415417671204,None,246.02705311775208,246.38240504264832,246.02705311775208,246.38240504264832,245.03415417671204,None,245.03415417671204,None,245.03415417671204,None,-1,-1,1,3,465.7409191131592,561.2988471984863,right,247.94174098968506,None,kyveli_pilot,icub,clamp,2021_Dec_17_1153,exp,2021.2.3,59.99988555930031,
left,stop,0,0,0,0,8,0,48,2,248.45689296722412,None,1,0.23213791847229004,248.45689296722412,None,248.81448817253113,None,249.83433413505554,250.20123505592346,249.83433413505554,250.20123505592346,248.81448817253113,None,248.81448817253113,None,248.81448817253113,None,450,500,0,3,507.3113441467285,504.15658950805664,left,251.70661902427673,None,kyveli_pilot,icub,clamp,2021_Dec_17_1153,exp,2021.2.3,59.99988555930031,
left,go,0,0,0,0,8,1,49,0,252.22523617744446,None,1,1.3530480861663818,252.22523617744446,None,253.6846001148224,None,254.6917781829834,255.04215598106384,254.6917781829834,255.04215598106384,253.6846001148224,None,253.6846001148224,None,253.6846001148224,None,-1,-1,1,3,366.1675453186035,539.520263671875,left,256.4981071949005,None,kyveli_pilot,icub,clamp,2021_Dec_17_1153,exp,2021.2.3,59.99988555930031,
right,go,0,0,0,0,8,2,50,4,257.0067620277405,None,1,0.4723939895629883,257.0067620277405,None,257.60705304145813,None,258.64072012901306,258.99882316589355,258.64072012901306,258.99882316589355,257.60705304145813,None,257.60705304145813,None,257.60705304145813,None,-1,-1,1,3,383.4502696990967,439.8620128631592,right,260.305545091629,None,kyveli_pilot,icub,clamp,2021_Dec_17_1153,exp,2021.2.3,59.99988555930031,
right,go,0,0,0,0,8,3,51,4,260.8094131946564,None,1,0.43483495712280273,260.8094131946564,None,261.35018014907837,None,262.37577414512634,262.74070501327515,262.37577414512634,262.74070501327515,261.35018014907837,None,261.35018014907837,None,261.35018014907837,None,-1,-1,1,3,452.84128189086914,561.6018772125244,right,264.24594616889954,None,kyveli_pilot,icub,clamp,2021_Dec_17_1153,exp,2021.2.3,59.99988555930031,
right,go,0,0,0,0,8,4,52,3,264.74927616119385,None,1,0.3333570957183838,264.74927616119385,None,265.1680600643158,None,266.1922450065613,266.5617380142212,266.1922450065613,266.5617380142212,265.1680600643158,None,265.1680600643158,None,265.1680600643158,None,-1,-1,1,3,451.0531425476074,687.8488063812256,right,268.215989112854,None,kyveli_pilot,icub,clamp,2021_Dec_17_1153,exp,2021.2.3,59.99988555930031,
right,stop,0,0,0,0,8,5,53,5,268.74575209617615,None,1,0.6692521572113037,268.74575209617615,None,269.53413105010986,None,270.5519061088562,270.9047939777374,270.5519061088562,270.9047939777374,269.53413105010986,None,269.53413105010986,None,269.53413105010986,None,400,500,0,3,404.4201374053955,500.2021789550781,right,272.3477771282196,None,kyveli_pilot,icub,clamp,2021_Dec_17_1153,exp,2021.2.3,59.99988555930031,
right,go,0,0,0,0,9,0,54,4,272.8440010547638,None,1,0.342210054397583,272.8440010547638,None,273.2667100429535,None,274.2849621772766,274.63283014297485,274.2849621772766,274.63283014297485,273.2667100429535,None,273.2667100429535,None,273.2667100429535,None,-1,-1,1,3,544.0621376037598,494.4150447845459,right,276.187842130661,None,kyveli_pilot,icub,clamp,2021_Dec_17_1153,exp,2021.2.3,59.99988555930031,
left,go,0,0,0,0,9,1,55,1,276.7121241092682,None,1,0.4545290470123291,276.7121241092682,None,277.25230598449707,None,278.2741241455078,278.6311089992523,278.2741241455078,278.6311089992523,277.25230598449707,None,277.25230598449707,None,277.25230598449707,None,-1,-1,1,3,462.29028701782227,488.66772651672363,left,280.0899770259857,None,kyveli_pilot,icub,clamp,2021_Dec_17_1153,exp,2021.2.3,59.99988555930031,
right,go,0,0,0,0,9,2,56,3,280.6036880016327,None,1,0.3184239864349365,280.6036880016327,None,281.02302718162537,None,282.04266810417175,282.40314197540283,282.04266810417175,282.40314197540283,281.02302718162537,None,281.02302718162537,None,281.02302718162537,None,-1,-1,1,3,503.28755378723145,555.7622909545898,right,283.9883539676666,None,kyveli_pilot,icub,clamp,2021_Dec_17_1153,exp,2021.2.3,59.99988555930031,
right,go,0,0,0,0,9,3,57,4,284.4955611228943,None,1,0.2695951461791992,284.4955611228943,None,284.8495659828186,None,285.87443017959595,286.2296550273895,285.87443017959595,286.2296550273895,284.8495659828186,None,284.8495659828186,None,284.8495659828186,None,-1,-1,1,3,327.3646831512451,588.9043807983398,right,287.6554491519928,None,kyveli_pilot,icub,clamp,2021_Dec_17_1153,exp,2021.2.3,59.99988555930031,
right,go,0,0,0,0,9,4,58,3,288.1901710033417,None,1,0.15980100631713867,288.1901710033417,None,288.42528915405273,None,289.4476230144501,289.8019709587097,289.4476230144501,289.8019709587097,288.42528915405273,None,288.42528915405273,None,288.42528915405273,None,-1,-1,1,3,515.9564018249512,585.0675106048584,right,291.4324400424957,None,kyveli_pilot,icub,clamp,2021_Dec_17_1153,exp,2021.2.3,59.99988555930031,
left,go,0,0,0,0,9,5,59,0,291.9654619693756,None,1,0.28459596633911133,291.9654619693756,None,292.32567405700684,None,293.3478319644928,293.7122609615326,293.3478319644928,293.7122609615326,292.32567405700684,None,292.32567405700684,None,292.32567405700684,None,-1,-1,1,3,349.6685028076172,552.1416664123535,left,295.1337831020355,None,kyveli_pilot,icub,clamp,2021_Dec_17_1153,exp,2021.2.3,59.99988555930031,
right,go,0,0,0,0,10,0,60,3,295.6344041824341,None,1,0.5475559234619141,295.6344041824341,None,296.29988718032837,None,297.3024671077728,297.62743401527405,297.3024671077728,297.62743401527405,296.29988718032837,None,296.29988718032837,None,296.29988718032837,None,-1,-1,1,3,382.9917907714844,743.2656288146973,right,299.31973218917847,None,kyveli_pilot,icub,clamp,2021_Dec_17_1153,exp,2021.2.3,59.99988555930031,
right,stop,0,0,0,0,10,1,61,5,299.82009196281433,None,1,0.23987698554992676,299.82009196281433,None,300.17538714408875,None,301.1736330986023,301.53184819221497,301.1736330986023,301.53184819221497,300.17538714408875,None,300.17538714408875,None,300.17538714408875,None,400,450,1,3,2467.1719074249268,-1.0,-1,307.5429790019989,None,kyveli_pilot,icub,clamp,2021_Dec_17_1153,exp,2021.2.3,59.99988555930031,
right,stop,0,0,0,0,10,2,62,5,308.07445096969604,None,1,0.7969310283660889,308.07445096969604,None,308.99556517601013,None,309.9784049987793,310.34469199180603,309.9784049987793,310.34469199180603,308.99556517601013,None,308.99556517601013,None,308.99556517601013,None,400,500,0,3,905.7958126068115,552.4256229400635,right,312.3411591053009,None,kyveli_pilot,icub,clamp,2021_Dec_17_1153,exp,2021.2.3,59.99988555930031,
left,stop,0,0,0,0,10,3,63,2,312.84704399108887,None,1,0.4058079719543457,312.84704399108887,None,313.38033509254456,None,314.38517117500305,314.7151460647583,314.38517117500305,314.7151460647583,313.38033509254456,None,313.38033509254456,None,313.38033509254456,None,400,450,0,3,692.0957565307617,487.66207695007324,left,316.4517719745636,None,kyveli_pilot,icub,clamp,2021_Dec_17_1153,exp,2021.2.3,59.99988555930031,
right,go,0,0,0,0,10,4,64,4,316.9512560367584,None,1,0.37475085258483887,316.9512560367584,None,317.4320139884949,None,318.4427909851074,318.7985291481018,318.4427909851074,318.7985291481018,317.4320139884949,None,317.4320139884949,None,317.4320139884949,None,-1,-1,1,3,840.7275676727295,543.5917377471924,right,320.70766401290894,None,kyveli_pilot,icub,clamp,2021_Dec_17_1153,exp,2021.2.3,59.99988555930031,
right,go,0,0,0,0,10,5,65,3,321.2210969924927,None,1,0.2660667896270752,321.2210969924927,None,321.57779812812805,None,322.60284900665283,322.96034002304077,322.60284900665283,322.96034002304077,321.57779812812805,None,321.57779812812805,None,321.57779812812805,None,-1,-1,1,3,443.16601753234863,456.7885398864746,right,324.3492350578308,None,kyveli_pilot,icub,clamp,2021_Dec_17_1153,exp,2021.2.3,59.99988555930031,
right,go,0,0,0,0,11,0,66,3,324.8653540611267,None,1,0.18920016288757324,324.8653540611267,None,325.14473009109497,None,326.1717209815979,326.5307810306549,326.1717209815979,326.5307810306549,325.14473009109497,None,325.14473009109497,None,325.14473009109497,None,-1,-1,1,3,300.5940914154053,458.47582817077637,right,327.79436206817627,None,kyveli_pilot,icub,clamp,2021_Dec_17_1153,exp,2021.2.3,59.99988555930031,
left,stop,0,0,0,0,11,1,67,2,328.30417013168335,None,1,0.25176501274108887,328.30417013168335,None,328.66114115715027,None,329.6663930416107,330.01926612854004,329.6663930416107,330.01926612854004,328.66114115715027,None,328.66114115715027,None,328.66114115715027,None,350,450,0,3,68.7718391418457,457.36122131347656,left,331.08094215393066,None,kyveli_pilot,icub,clamp,2021_Dec_17_1153,exp,2021.2.3,59.99988555930031,
left,go,0,0,0,0,11,2,68,0,331.584153175354,None,1,0.14599609375,331.584153175354,None,331.82086205482483,None,332.84175395965576,333.19226908683777,332.84175395965576,333.19226908683777,331.82086205482483,None,331.82086205482483,None,331.82086205482483,None,,,0,3,-1.0,-1.0,-1,333.6168780326843,None,kyveli_pilot,icub,clamp,2021_Dec_17_1153,exp,2021.2.3,59.99988555930031,
right,stop,0,0,0,0,11,3,69,5,334.1475431919098,None,1,1.464205026626587,334.1475431919098,None,335.72303915023804,None,336.73277711868286,337.0921120643616,336.73277711868286,337.0921120643616,335.72303915023804,None,335.72303915023804,None,335.72303915023804,None,300,450,0,3,588.801383972168,435.82987785339355,right,338.631872177124,None,kyveli_pilot,icub,clamp,2021_Dec_17_1153,exp,2021.2.3,59.99988555930031,
left,go,0,0,0,0,11,4,70,0,339.1358711719513,None,1,0.7450089454650879,339.1358711719513,None,339.98763704299927,None,341.01258397102356,341.37882018089294,341.01258397102356,341.37882018089294,339.98763704299927,None,339.98763704299927,None,339.98763704299927,None,-1,-1,1,3,59.31353569030762,528.3041000366211,left,342.460813999176,None,kyveli_pilot,icub,clamp,2021_Dec_17_1153,exp,2021.2.3,59.99988555930031,
left,go,0,0,0,0,11,5,71,1,342.9917531013489,None,1,0.17710304260253906,342.9917531013489,None,343.2838771343231,None,344.2772421836853,344.6393961906433,344.2772421836853,344.6393961906433,343.2838771343231,None,343.2838771343231,None,343.2838771343231,None,-1,-1,1,3,523.3826637268066,485.9468936920166,left,346.18081617355347,None,kyveli_pilot,icub,clamp,2021_Dec_17_1153,exp,2021.2.3,59.99988555930031,
left,go,0,0,0,0,12,0,72,0,346.67966413497925,None,1,0.4943358898162842,346.67966413497925,None,347.28017115592957,None,348.30493903160095,348.66064500808716,348.30493903160095,348.66064500808716,347.28017115592957,None,347.28017115592957,None,347.28017115592957,None,-1,-1,1,3,461.8537425994873,449.753999710083,left,350.1033179759979,None,kyveli_pilot,icub,clamp,2021_Dec_17_1153,exp,2021.2.3,59.99988555930031,
left,stop,0,0,0,0,12,1,73,2,350.634299993515,None,1,0.3220858573913574,350.634299993515,None,351.0518009662628,None,352.0678150653839,352.4385390281677,352.0678150653839,352.4385390281677,351.0518009662628,None,351.0518009662628,None,351.0518009662628,None,300,400,1,3,483.7369918823242,-1.0,-1,356.4078481197357,None,kyveli_pilot,icub,clamp,2021_Dec_17_1153,exp,2021.2.3,59.99988555930031,
right,stop,0,0,0,0,12,2,74,5,356.9026379585266,None,1,0.7495338916778564,356.9026379585266,None,357.7611241340637,None,358.73667311668396,359.09655809402466,358.73667311668396,359.09655809402466,357.7611241340637,None,357.7611241340637,None,357.7611241340637,None,350,400,0,3,468.3494567871094,546.2627410888672,right,360.6771411895752,None,kyveli_pilot,icub,clamp,2021_Dec_17_1153,exp,2021.2.3,59.99988555930031,
left,go,0,0,0,0,12,3,75,1,361.17622113227844,None,1,4.468950033187866,361.17622113227844,None,365.7331430912018,None,366.70705699920654,367.0459871292114,366.70705699920654,367.0459871292114,365.7331430912018,None,365.7331430912018,None,365.7331430912018,None,-1,-1,1,3,538.8152599334717,512.7716064453125,left,368.66886711120605,None,kyveli_pilot,icub,clamp,2021_Dec_17_1153,exp,2021.2.3,59.99988555930031,
left,stop,0,0,0,0,12,4,76,2,369.17955708503723,None,1,0.3000450134277344,369.17955708503723,None,369.5956790447235,None,370.5939211845398,370.9517500400543,370.5939211845398,370.9517500400543,369.5956790447235,None,369.5956790447235,None,369.5956790447235,None,350,350,0,3,429.5186996459961,580.618143081665,left,372.4980411529541,None,kyveli_pilot,icub,clamp,2021_Dec_17_1153,exp,2021.2.3,59.99988555930031,
right,go,0,0,0,0,12,5,77,4,372.9950740337372,None,1,0.5547819137573242,372.9950740337372,None,373.6599609851837,None,374.67477917671204,375.03755712509155,374.67477917671204,375.03755712509155,373.6599609851837,None,373.6599609851837,None,373.6599609851837,None,-1,-1,1,3,325.1657485961914,801.5189170837402,right,376.6954550743103,None,kyveli_pilot,icub,clamp,2021_Dec_17_1153,exp,2021.2.3,59.99988555930031,
left,go,1,0,1,0,0,0,0,0,446.9710750579834,None,1,1.2447221279144287,446.9710750579834,None,448.29620909690857,None,449.2898681163788,449.66023302078247,449.2898681163788,449.66023302078247,448.29620909690857,None,448.29620909690857,None,448.29620909690857,None,-1,-1,1,3,408.937931060791,469.62785720825195,left,451.0723559856415,None,kyveli_pilot,icub,clamp,2021_Dec_17_1153,exp,2021.2.3,59.99988555930031,
right,go,1,0,1,0,0,1,1,4,451.60403299331665,None,1,0.20929288864135742,451.60403299331665,None,451.8989791870117,None,452.9006199836731,453.27121019363403,452.9006199836731,453.27121019363403,451.8989791870117,None,451.8989791870117,None,451.8989791870117,None,-1,-1,1,3,526.1235237121582,635.9543800354004,right,454.95987701416016,None,kyveli_pilot,icub,clamp,2021_Dec_17_1153,exp,2021.2.3,59.99988555930031,
right,stop,1,0,1,0,0,2,2,5,455.4691801071167,None,1,0.176131010055542,455.4691801071167,None,455.76381516456604,None,456.767774105072,457.121160030365,456.767774105072,457.121160030365,455.76381516456604,None,455.76381516456604,None,455.76381516456604,None,300,350,1,3,467.5254821777344,-1.0,-1,461.1197521686554,None,kyveli_pilot,icub,clamp,2021_Dec_17_1153,exp,2021.2.3,59.99988555930031,
left,go,1,0,1,0,0,3,3,0,461.6158630847931,None,1,1.0849831104278564,461.6158630847931,None,462.7878201007843,None,463.75995206832886,464.1114010810852,463.75995206832886,464.1114010810852,462.7878201007843,None,462.7878201007843,None,462.7878201007843,None,-1,-1,1,3,511.1246109008789,557.6333999633789,left,465.7442669868469,None,kyveli_pilot,icub,clamp,2021_Dec_17_1153,exp,2021.2.3,59.99988555930031,
right,stop,1,0,1,0,0,4,4,5,466.25714111328125,None,1,0.13409709930419922,466.25714111328125,None,466.4917080402374,None,467.4970769882202,467.853716135025,467.4970769882202,467.853716135025,466.4917080402374,None,466.4917080402374,None,466.4917080402374,None,300,400,0,3,552.6130199432373,515.4621601104736,right,469.45644307136536,None,kyveli_pilot,icub,clamp,2021_Dec_17_1153,exp,2021.2.3,59.99988555930031,
right,go,1,0,1,0,0,5,5,4,469.95539808273315,None,1,0.06984806060791016,469.95539808273315,None,470.1261041164398,None,471.1518530845642,471.5179531574249,471.1518530845642,471.5179531574249,470.1261041164398,None,470.1261041164398,None,470.1261041164398,None,-1,-1,1,3,570.422887802124,610.5639934539795,right,473.19181513786316,None,kyveli_pilot,icub,clamp,2021_Dec_17_1153,exp,2021.2.3,59.99988555930031,
right,stop,1,0,1,0,1,0,6,5,473.71154403686523,None,1,0.09777688980102539,473.71154403686523,None,473.8848650455475,None,474.90559697151184,475.26038002967834,474.90559697151184,475.26038002967834,473.8848650455475,None,473.8848650455475,None,473.8848650455475,None,300,350,1,3,318.2060718536377,-1.0,-1,479.11049914360046,None,kyveli_pilot,icub,clamp,2021_Dec_17_1153,exp,2021.2.3,59.99988555930031,
left,go,1,0,1,0,1,1,7,0,479.64455914497375,None,1,0.5090980529785156,479.64455914497375,None,480.2584421634674,None,481.2325270175934,481.58661699295044,481.2325270175934,481.58661699295044,480.2584421634674,None,480.2584421634674,None,480.2584421634674,None,-1,-1,1,3,395.5426216125488,594.4099426269531,left,483.1499490737915,None,kyveli_pilot,icub,clamp,2021_Dec_17_1153,exp,2021.2.3,59.99988555930031,
right,go,1,0,1,0,1,2,8,3,483.6574070453644,None,1,0.21114897727966309,483.6574070453644,None,483.95386695861816,None,484.9544470310211,485.30924916267395,484.9544470310211,485.30924916267395,483.95386695861816,None,483.95386695861816,None,483.95386695861816,None,-1,-1,1,3,357.9277992248535,413.47289085388184,right,486.61202216148376,None,kyveli_pilot,icub,clamp,2021_Dec_17_1153,exp,2021.2.3,59.99988555930031,
left,go,1,0,1,0,1,3,9,0,487.1409571170807,None,1,0.06095004081726074,487.1409571170807,None,487.30422806739807,None,488.30697298049927,488.6600580215454,488.30697298049927,488.6600580215454,487.30422806739807,None,487.30422806739807,None,487.30422806739807,None,-1,-1,1,3,322.5598335266113,451.5082836151123,left,489.9523720741272,None,kyveli_pilot,icub,clamp,2021_Dec_17_1153,exp,2021.2.3,59.99988555930031,
left,go,1,0,1,0,1,4,10,0,490.4692180156708,None,1,0.017061948776245117,490.4692180156708,None,490.58174419403076,None,491.59413719177246,491.95739006996155,491.59413719177246,491.95739006996155,490.58174419403076,None,490.58174419403076,None,490.58174419403076,None,-1,-1,1,3,513.4825706481934,462.8260135650635,left,493.4608051776886,None,kyveli_pilot,icub,clamp,2021_Dec_17_1153,exp,2021.2.3,59.99988555930031,
left,stop,1,0,1,0,1,5,11,2,493.96361112594604,None,1,2.405033826828003,493.96361112594604,None,496.4775700569153,None,497.4562520980835,497.82559514045715,497.4562520980835,497.82559514045715,496.4775700569153,None,496.4775700569153,None,496.4775700569153,None,300,400,0,3,523.2844352722168,585.216760635376,left,499.47127509117126,None,kyveli_pilot,icub,clamp,2021_Dec_17_1153,exp,2021.2.3,59.99988555930031,
left,go,1,0,1,0,2,0,12,1,499.9658679962158,None,1,0.11593413352966309,499.9658679962158,None,500.1949670314789,None,501.2040870189667,501.57114911079407,501.2040870189667,501.57114911079407,500.1949670314789,None,500.1949670314789,None,500.1949670314789,None,-1,-1,1,3,414.93678092956543,576.3711929321289,left,503.0853261947632,None,kyveli_pilot,icub,clamp,2021_Dec_17_1153,exp,2021.2.3,59.99988555930031,
right,go,1,0,1,0,2,1,13,3,503.60198998451233,None,1,2.8546178340911865,503.60198998451233,None,506.5615451335907,None,507.5425341129303,507.9032030105591,507.5425341129303,507.9032030105591,506.5615451335907,None,506.5615451335907,None,506.5615451335907,None,-1,-1,1,3,449.5658874511719,447.2532272338867,right,509.32872200012207,None,kyveli_pilot,icub,clamp,2021_Dec_17_1153,exp,2021.2.3,59.99988555930031,
left,go,1,0,1,0,2,2,14,1,509.84827303886414,None,1,3.510338068008423,509.84827303886414,None,513.4382741451263,None,514.4243819713593,514.781033039093,514.4243819713593,514.781033039093,513.4382741451263,None,513.4382741451263,None,513.4382741451263,None,-1,-1,1,3,314.7311210632324,454.32043075561523,left,516.0966620445251,None,kyveli_pilot,icub,clamp,2021_Dec_17_1153,exp,2021.2.3,59.99988555930031,
left,stop,1,0,1,0,2,3,15,2,516.616592168808,None,1,2.8719348907470703,516.616592168808,None,519.5771880149841,None,520.5618431568146,520.9036111831665,520.5618431568146,520.9036111831665,519.5771880149841,None,519.5771880149841,None,519.5771880149841,None,250,400,0,3,346.7140197753906,423.7785339355469,left,522.217710018158,None,kyveli_pilot,icub,clamp,2021_Dec_17_1153,exp,2021.2.3,59.99988555930031,
right,stop,1,0,1,0,2,4,16,5,522.7371261119843,None,1,0.24396491050720215,522.7371261119843,None,523.0919439792633,None,None,None,None,None,523.0919439792633,None,523.0919439792633,None,523.0919439792633,None,,,0,3,-1.0,-1.0,-1,523.6603829860687,None,kyveli_pilot,icub,clamp,2021_Dec_17_1153,exp,2021.2.3,59.99988555930031,
left,stop,1,0,1,0,2,5,17,2,524.1917290687561,None,1,0.9328420162200928,524.1917290687561,None,525.2370700836182,None,526.2195680141449,526.5633959770203,526.2195680141449,526.5633959770203,525.2370700836182,None,525.2370700836182,None,525.2370700836182,None,200,400,1,3,674.4608879089355,-1.0,-1,530.8248300552368,None,kyveli_pilot,icub,clamp,2021_Dec_17_1153,exp,2021.2.3,59.99988555930031,
left,go,1,0,1,0,3,0,18,0,531.3210411071777,None,1,0.7574291229248047,531.3210411071777,None,532.183137178421,None,533.1664321422577,533.5197141170502,533.1664321422577,533.5197141170502,532.183137178421,None,532.183137178421,None,532.183137178421,None,-1,-1,1,3,199.66721534729004,411.7777347564697,left,534.6626281738281,None,kyveli_pilot,icub,clamp,2021_Dec_17_1153,exp,2021.2.3,59.99988555930031,
left,go,1,0,1,0,3,1,19,0,535.1936960220337,None,1,1.252824068069458,535.1936960220337,None,536.5782971382141,None,537.5625991821289,537.9129891395569,537.5625991821289,537.9129891395569,536.5782971382141,None,536.5782971382141,None,536.5782971382141,None,-1,-1,1,3,347.9013442993164,696.3186264038086,left,539.4893651008606,None,kyveli_pilot,icub,clamp,2021_Dec_17_1153,exp,2021.2.3,59.99988555930031,
right,go,1,0,1,0,3,2,20,4,540.0127460956573,None,1,0.0797731876373291,540.0127460956573,None,540.1830689907074,None,541.176381111145,541.5298941135406,541.176381111145,541.5298941135406,540.1830689907074,None,540.1830689907074,None,540.1830689907074,None,-1,-1,1,3,442.8672790527344,447.6442337036133,right,542.9510991573334,None,kyveli_pilot,icub,clamp,2021_Dec_17_1153,exp,2021.2.3,59.99988555930031,
right,stop,1,0,1,0,3,3,21,5,543.4507141113281,None,1,0.10827302932739258,543.4507141113281,None,543.6823971271515,None,544.70379114151,545.0469770431519,544.70379114151,545.0469770431519,543.6823971271515,None,543.6823971271515,None,543.6823971271515,None,250,400,0,3,556.9977760314941,465.93356132507324,right,546.6054971218109,None,kyveli_pilot,icub,clamp,2021_Dec_17_1153,exp,2021.2.3,59.99988555930031,
right,go,1,0,1,0,3,4,22,4,547.1013081073761,None,1,0.12166309356689453,547.1013081073761,None,547.3307771682739,None,548.3391630649567,548.7001819610596,548.3391630649567,548.7001819610596,547.3307771682739,None,547.3307771682739,None,547.3307771682739,None,-1,-1,1,3,402.3904800415039,511.69657707214355,right,550.1495430469513,None,kyveli_pilot,icub,clamp,2021_Dec_17_1153,exp,2021.2.3,59.99988555930031,
right,stop,1,0,1,0,3,5,23,5,550.6534061431885,None,1,0.03583097457885742,550.6534061431885,None,550.7648210525513,None,551.777556180954,552.1248450279236,551.777556180954,552.1248450279236,550.7648210525513,None,550.7648210525513,None,550.7648210525513,None,250,350,0,3,384.0630054473877,496.2787628173828,right,553.5368030071259,None,kyveli_pilot,icub,clamp,2021_Dec_17_1153,exp,2021.2.3,59.99988555930031,
right,stop,1,0,1,0,4,0,24,5,554.0586581230164,None,1,1.4568769931793213,554.0586581230164,None,555.5964481830597,None,556.5768420696259,556.9325070381165,556.5768420696259,556.9325070381165,555.5964481830597,None,555.5964481830597,None,555.5964481830597,None,250,300,1,3,389.6472454071045,-1.0,-1,560.8627750873566,None,kyveli_pilot,icub,clamp,2021_Dec_17_1153,exp,2021.2.3,59.99988555930031,
left,stop,1,0,1,0,4,1,25,2,561.3559980392456,None,1,0.6733918190002441,561.3559980392456,None,562.1561059951782,None,563.1409211158752,563.5066940784454,563.1409211158752,563.5066940784454,562.1561059951782,None,562.1561059951782,None,562.1561059951782,None,250,350,1,3,708.2960605621338,-1.0,-1,567.7485949993134,None,kyveli_pilot,icub,clamp,2021_Dec_17_1153,exp,2021.2.3,59.99988555930031,
left,stop,1,0,1,0,4,2,26,2,568.2442941665649,None,1,0.7970700263977051,568.2442941665649,None,569.1690311431885,None,570.15376496315,570.5259711742401,570.15376496315,570.5259711742401,569.1690311431885,None,569.1690311431885,None,569.1690311431885,None,300,350,1,3,579.3166160583496,-1.0,-1,574.6523740291595,None,kyveli_pilot,icub,clamp,2021_Dec_17_1153,exp,2021.2.3,59.99988555930031,
right,go,1,0,1,0,4,3,27,3,575.148894071579,None,1,0.7953910827636719,575.148894071579,None,576.0743370056152,None,577.0784361362457,577.4298050403595,577.0784361362457,577.4298050403595,576.0743370056152,None,576.0743370056152,None,576.0743370056152,None,-1,-1,1,3,542.6065921783447,456.06374740600586,right,578.9526340961456,None,kyveli_pilot,icub,clamp,2021_Dec_17_1153,exp,2021.2.3,59.99988555930031,
left,go,1,0,1,0,4,4,28,0,579.4599521160126,None,1,0.03381609916687012,579.4599521160126,None,579.6270711421967,None,580.6428439617157,580.9908201694489,580.6428439617157,580.9908201694489,579.6270711421967,None,579.6270711421967,None,579.6270711421967,None,-1,-1,1,3,542.8793430328369,511.4893913269043,left,582.5673470497131,None,kyveli_pilot,icub,clamp,2021_Dec_17_1153,exp,2021.2.3,59.99988555930031,
left,go,1,0,1,0,4,5,29,1,583.0754070281982,None,1,0.1236259937286377,583.0754070281982,None,583.3078970909119,None,584.310791015625,584.6581320762634,584.310791015625,584.6581320762634,583.3078970909119,None,583.3078970909119,None,583.3078970909119,None,-1,-1,1,3,430.33766746520996,497.26414680480957,left,586.1467599868774,None,kyveli_pilot,icub,clamp,2021_Dec_17_1153,exp,2021.2.3,59.99988555930031,
right,go,1,0,1,0,5,0,30,4,586.6588940620422,None,1,0.04911398887634277,586.6588940620422,None,586.8265771865845,None,587.8221311569214,588.181713104248,587.8221311569214,588.181713104248,586.8265771865845,None,586.8265771865845,None,586.8265771865845,None,-1,-1,1,3,477.1080017089844,345.36051750183105,right,589.5387511253357,None,kyveli_pilot,icub,clamp,2021_Dec_17_1153,exp,2021.2.3,59.99988555930031,
right,go,1,0,1,0,5,1,31,4,590.0390810966492,None,1,0.43099498748779297,590.0390810966492,None,590.5749950408936,None,591.5803771018982,591.9279589653015,591.5803771018982,591.9279589653015,590.5749950408936,None,590.5749950408936,None,590.5749950408936,None,-1,-1,1,3,370.91517448425293,675.4961013793945,right,593.5200440883636,None,kyveli_pilot,icub,clamp,2021_Dec_17_1153,exp,2021.2.3,59.99988555930031,
left,go,1,0,1,0,5,2,32,1,594.0326011180878,None,1,0.07349300384521484,594.0326011180878,None,594.2077829837799,None,595.2412281036377,595.5992360115051,595.2412281036377,595.5992360115051,594.2077829837799,None,594.2077829837799,None,594.2077829837799,None,-1,-1,1,3,344.4936275482178,522.5517749786377,left,596.9477770328522,None,kyveli_pilot,icub,clamp,2021_Dec_17_1153,exp,2021.2.3,59.99988555930031,
right,stop,1,0,1,0,5,3,33,5,597.4710941314697,None,1,0.22172904014587402,597.4710941314697,None,597.7681121826172,None,598.795431137085,599.1505451202393,598.795431137085,599.1505451202393,597.7681121826172,None,597.7681121826172,None,597.7681121826172,None,350,350,1,3,380.71441650390625,-1.0,-1,603.0219559669495,None,kyveli_pilot,icub,clamp,2021_Dec_17_1153,exp,2021.2.3,59.99988555930031,
right,go,1,0,1,0,5,4,34,3,603.5189371109009,None,1,0.24521803855895996,603.5189371109009,None,603.8840379714966,None,604.8654210567474,605.2171421051025,604.8654210567474,605.2171421051025,603.8840379714966,None,603.8840379714966,None,603.8840379714966,None,-1,-1,1,3,30.472517013549805,524.8801708221436,right,606.3031580448151,None,kyveli_pilot,icub,clamp,2021_Dec_17_1153,exp,2021.2.3,59.99988555930031,
left,go,1,0,1,0,5,5,35,0,606.8114631175995,None,1,0.07463216781616211,606.8114631175995,None,606.9773080348969,None,607.9765541553497,608.3390991687775,607.9765541553497,608.3390991687775,606.9773080348969,None,606.9773080348969,None,606.9773080348969,None,-1,-1,1,3,403.78522872924805,782.8700542449951,left,610.046355009079,None,kyveli_pilot,icub,clamp,2021_Dec_17_1153,exp,2021.2.3,59.99988555930031,
left,go,1,0,1,0,6,0,36,1,610.5558111667633,None,1,0.09302401542663574,610.5558111667633,None,610.729474067688,None,611.743497133255,612.1069810390472,611.743497133255,612.1069810390472,610.729474067688,None,610.729474067688,None,610.729474067688,None,-1,-1,1,3,292.6955223083496,492.0544624328613,left,613.3806281089783,None,kyveli_pilot,icub,clamp,2021_Dec_17_1153,exp,2021.2.3,59.99988555930031,
right,go,1,0,1,0,6,1,37,3,613.8891050815582,None,1,0.08941102027893066,613.8891050815582,None,614.0590209960938,None,615.0674149990082,615.4213030338287,615.0674149990082,615.4213030338287,614.0590209960938,None,614.0590209960938,None,614.0590209960938,None,-1,-1,1,3,301.73778533935547,581.4483165740967,right,616.813826084137,None,kyveli_pilot,icub,clamp,2021_Dec_17_1153,exp,2021.2.3,59.99988555930031,
left,go,1,0,1,0,6,2,38,1,617.3292260169983,None,1,0.10860300064086914,617.3292260169983,None,617.5618200302124,None,618.5809171199799,618.9410769939423,618.5809171199799,618.9410769939423,617.5618200302124,None,617.5618200302124,None,617.5618200302124,None,-1,-1,1,3,68.90487670898438,514.9514675140381,left,620.048935174942,None,kyveli_pilot,icub,clamp,2021_Dec_17_1153,exp,2021.2.3,59.99988555930031,
left,stop,1,0,1,0,6,3,39,2,620.5779850482941,None,1,0.07088398933410645,620.5779850482941,None,620.7499001026154,None,621.7755579948425,622.1259210109711,621.7755579948425,622.1259210109711,620.7499001026154,None,620.7499001026154,None,620.7499001026154,None,,,0,3,3000.568628311157,-1.0,-1,625.650041103363,None,kyveli_pilot,icub,clamp,2021_Dec_17_1153,exp,2021.2.3,59.99988555930031,
left,go,1,0,1,0,6,4,40,0,626.1403419971466,None,1,0.7108049392700195,626.1403419971466,None,626.9417381286621,None,627.9236471652985,628.2876381874084,627.9236471652985,628.2876381874084,626.9417381286621,None,626.9417381286621,None,626.9417381286621,None,-1,-1,1,3,449.08642768859863,478.759765625,left,629.7538330554962,None,kyveli_pilot,icub,clamp,2021_Dec_17_1153,exp,2021.2.3,59.99988555930031,
right,go,1,0,1,0,6,5,41,4,630.2510139942169,None,1,0.19344091415405273,630.2510139942169,None,630.5455169677734,None,631.5682029724121,631.9227380752563,631.5682029724121,631.9227380752563,630.5455169677734,None,630.5455169677734,None,630.5455169677734,None,-1,-1,1,3,324.40781593322754,545.5987453460693,right,633.3161461353302,None,kyveli_pilot,icub,clamp,2021_Dec_17_1153,exp,2021.2.3,59.99988555930031,
left,go,1,0,1,0,7,0,42,1,633.839292049408,None,1,0.39608097076416016,633.839292049408,None,634.3527450561523,None,635.3573751449585,635.7242040634155,635.3573751449585,635.7242040634155,634.3527450561523,None,634.3527450561523,None,634.3527450561523,None,-1,-1,1,3,287.74189949035645,543.2462692260742,left,637.0870389938354,None,kyveli_pilot,icub,clamp,2021_Dec_17_1153,exp,2021.2.3,59.99988555930031,
right,go,1,0,1,0,7,1,43,3,637.6227669715881,None,1,0.1372220516204834,637.6227669715881,None,637.8550310134888,None,638.856959104538,639.2151131629944,638.856959104538,639.2151131629944,637.8550310134888,None,637.8550310134888,None,637.8550310134888,None,-1,-1,1,3,271.91829681396484,467.897891998291,right,640.4859960079193,None,kyveli_pilot,icub,clamp,2021_Dec_17_1153,exp,2021.2.3,59.99988555930031,
right,go,1,0,1,0,7,2,44,4,640.9983911514282,None,1,0.4251871109008789,640.9983911514282,None,641.5395121574402,None,642.5318901538849,642.8765711784363,642.5318901538849,642.8765711784363,641.5395121574402,None,641.5395121574402,None,641.5395121574402,None,-1,-1,1,3,313.77339363098145,644.0322399139404,right,644.4046189785004,None,kyveli_pilot,icub,clamp,2021_Dec_17_1153,exp,2021.2.3,59.99988555930031,
left,stop,1,0,1,0,7,3,45,2,644.9364640712738,None,1,0.11419415473937988,644.9364640712738,None,645.1630470752716,None,646.181300163269,646.5458791255951,646.181300163269,646.5458791255951,645.1630470752716,None,645.1630470752716,None,645.1630470752716,None,350,400,1,3,318.3896541595459,-1.0,-1,650.3895289897919,None,kyveli_pilot,icub,clamp,2021_Dec_17_1153,exp,2021.2.3,59.99988555930031,
right,stop,1,0,1,0,7,4,46,5,650.8875620365143,None,1,0.5166449546813965,650.8875620365143,None,651.5000929832458,None,652.4874081611633,652.8440699577332,652.4874081611633,652.8440699577332,651.5000929832458,None,651.5000929832458,None,651.5000929832458,None,400,400,0,3,340.564489364624,419.2953109741211,right,654.143404006958,None,kyveli_pilot,icub,clamp,2021_Dec_17_1153,exp,2021.2.3,59.99988555930031,
left,stop,1,0,1,0,7,5,47,2,654.6389801502228,None,1,0.28961706161499023,654.6389801502228,None,655.0569870471954,None,656.0476219654083,656.3808491230011,656.0476219654083,656.3808491230011,655.0569870471954,None,655.0569870471954,None,655.0569870471954,None,400,350,1,3,328.9358615875244,-1.0,-1,660.297119140625,None,kyveli_pilot,icub,clamp,2021_Dec_17_1153,exp,2021.2.3,59.99988555930031,
right,go,1,0,1,0,8,0,48,3,660.7923741340637,None,1,2.5335259437561035,660.7923741340637,None,663.4553890228271,None,664.4365360736847,664.7865209579468,664.4365360736847,664.7865209579468,663.4553890228271,None,663.4553890228271,None,663.4553890228271,None,-1,-1,1,3,305.5074214935303,668.6868667602539,right,666.3208951950073,None,kyveli_pilot,icub,clamp,2021_Dec_17_1153,exp,2021.2.3,59.99988555930031,
right,go,1,0,1,0,8,1,49,3,666.8394241333008,None,1,0.13549208641052246,666.8394241333008,None,667.068619966507,None,668.0791940689087,668.4445979595184,668.0791940689087,668.4445979595184,667.068619966507,None,667.068619966507,None,667.068619966507,None,-1,-1,1,3,660.0086688995361,566.5485858917236,right,670.1987981796265,None,kyveli_pilot,icub,clamp,2021_Dec_17_1153,exp,2021.2.3,59.99988555930031,
right,go,1,0,1,0,8,2,50,3,670.7161140441895,None,1,0.09905505180358887,670.7161140441895,None,670.9374330043793,None,671.9530920982361,672.3151161670685,671.9530920982361,672.3151161670685,670.9374330043793,None,670.9374330043793,None,670.9374330043793,None,-1,-1,1,3,309.29017066955566,563.4865760803223,right,673.7179570198059,None,kyveli_pilot,icub,clamp,2021_Dec_17_1153,exp,2021.2.3,59.99988555930031,
right,go,1,0,1,0,8,3,51,3,674.2363181114197,None,1,0.031169891357421875,674.2363181114197,None,674.3479490280151,None,675.3446860313416,675.6997871398926,675.3446860313416,675.6997871398926,674.3479490280151,None,674.3479490280151,None,674.3479490280151,None,-1,-1,1,3,299.72124099731445,552.2537231445312,right,677.0821661949158,None,kyveli_pilot,icub,clamp,2021_Dec_17_1153,exp,2021.2.3,59.99988555930031,
right,go,1,0,1,0,8,4,52,3,677.5985760688782,None,1,0.052232980728149414,677.5985760688782,None,677.769534111023,None,678.7699000835419,679.1173679828644,678.7699000835419,679.1173679828644,677.769534111023,None,677.769534111023,None,677.769534111023,None,-1,-1,1,3,571.5088844299316,693.1536197662354,right,680.9116940498352,None,kyveli_pilot,icub,clamp,2021_Dec_17_1153,exp,2021.2.3,59.99988555930031,
left,stop,1,0,1,0,8,5,53,2,681.4204821586609,None,1,1.3025500774383545,681.4204821586609,None,682.8172760009766,None,683.8018400669098,684.1588571071625,683.8018400669098,684.1588571071625,682.8172760009766,None,682.8172760009766,None,682.8172760009766,None,450,350,1,3,373.9125728607178,-1.0,-1,688.0956661701202,None,kyveli_pilot,icub,clamp,2021_Dec_17_1153,exp,2021.2.3,59.99988555930031,
left,go,1,0,1,0,9,0,54,0,688.5920209884644,None,1,0.513916015625,688.5920209884644,None,689.2054851055145,None,690.1873080730438,690.5520761013031,690.1873080730438,690.5520761013031,689.2054851055145,None,689.2054851055145,None,689.2054851055145,None,-1,-1,1,3,290.79699516296387,558.8600635528564,left,691.9339661598206,None,kyveli_pilot,icub,clamp,2021_Dec_17_1153,exp,2021.2.3,59.99988555930031,
right,go,1,0,1,0,9,1,55,4,692.4614260196686,None,1,0.14033198356628418,692.4614260196686,None,692.6817400455475,None,693.714063167572,694.0742480754852,693.714063167572,694.0742480754852,692.6817400455475,None,692.6817400455475,None,692.6817400455475,None,-1,-1,1,3,342.9529666900635,727.6821136474609,right,695.6300551891327,None,kyveli_pilot,icub,clamp,2021_Dec_17_1153,exp,2021.2.3,59.99988555930031,
left,stop,1,0,1,0,9,2,56,2,696.1460239887238,None,1,0.12443399429321289,696.1460239887238,None,696.3807241916656,None,697.3736870288849,697.7295670509338,697.3736870288849,697.7295670509338,696.3807241916656,None,696.3807241916656,None,696.3807241916656,None,500,350,0,3,324.0623474121094,587.1765613555908,left,699.1796431541443,None,kyveli_pilot,icub,clamp,2021_Dec_17_1153,exp,2021.2.3,59.99988555930031,
right,stop,1,0,1,0,9,3,57,5,699.6901371479034,None,1,0.11707305908203125,699.6901371479034,None,699.9224810600281,None,700.9557161331177,701.3222260475159,700.9557161331177,701.3222260475159,699.9224810600281,None,699.9224810600281,None,699.9224810600281,None,450,350,1,3,415.3025150299072,-1.0,-1,705.236081123352,None,kyveli_pilot,icub,clamp,2021_Dec_17_1153,exp,2021.2.3,59.99988555930031,
left,go,1,0,1,0,9,4,58,1,705.7335431575775,None,1,0.5624330043792725,705.7335431575775,None,706.4101240634918,None,707.3916571140289,707.7559750080109,707.3916571140289,707.7559750080109,706.4101240634918,None,706.4101240634918,None,706.4101240634918,None,-1,-1,1,3,523.1266021728516,517.4009799957275,left,709.3300321102142,None,kyveli_pilot,icub,clamp,2021_Dec_17_1153,exp,2021.2.3,59.99988555930031,
left,go,1,0,1,0,9,5,59,1,709.8371481895447,None,1,0.13944482803344727,709.8371481895447,None,710.0723521709442,None,711.0814230442047,711.4410209655762,711.0814230442047,711.4410209655762,710.0723521709442,None,710.0723521709442,None,710.0723521709442,None,-1,-1,1,3,291.9025421142578,515.4340267181396,left,712.7680530548096,None,kyveli_pilot,icub,clamp,2021_Dec_17_1153,exp,2021.2.3,59.99988555930031,
left,go,1,0,1,0,10,0,60,1,713.2841181755066,None,1,0.21532988548278809,713.2841181755066,None,713.580001115799,None,714.5837721824646,714.9499859809875,714.5837721824646,714.9499859809875,713.580001115799,None,713.580001115799,None,713.580001115799,None,-1,-1,1,3,300.4412651062012,639.7914886474609,left,716.4169781208038,None,kyveli_pilot,icub,clamp,2021_Dec_17_1153,exp,2021.2.3,59.99988555930031,
left,go,1,0,1,0,10,1,61,0,716.9151000976562,None,1,0.10346794128417969,716.9151000976562,None,717.1475701332092,None,718.1461291313171,718.5096800327301,718.1461291313171,718.5096800327301,717.1475701332092,None,717.1475701332092,None,717.1475701332092,None,-1,-1,1,3,254.561185836792,506.9084167480469,left,719.8038630485535,None,kyveli_pilot,icub,clamp,2021_Dec_17_1153,exp,2021.2.3,59.99988555930031,
right,stop,1,0,1,0,10,2,62,5,720.320808172226,None,1,0.2957470417022705,720.320808172226,None,720.7392361164093,None,721.7725131511688,722.1293270587921,721.7725131511688,722.1293270587921,720.7392361164093,None,720.7392361164093,None,720.7392361164093,None,450,400,0,3,556.9865703582764,450.84524154663086,right,723.6624341011047,None,kyveli_pilot,icub,clamp,2021_Dec_17_1153,exp,2021.2.3,59.99988555930031,
right,go,1,0,1,0,10,3,63,4,724.1681790351868,None,1,0.3660547733306885,724.1681790351868,None,724.6476230621338,None,725.6446011066437,726.0092439651489,725.6446011066437,726.0092439651489,724.6476230621338,None,724.6476230621338,None,724.6476230621338,None,-1,-1,1,3,380.65171241760254,723.7982749938965,right,727.6490371227264,None,kyveli_pilot,icub,clamp,2021_Dec_17_1153,exp,2021.2.3,59.99988555930031,
left,go,1,0,1,0,10,4,64,1,728.1650500297546,None,1,0.13039207458496094,728.1650500297546,None,728.3994109630585,None,729.4217531681061,729.7731289863586,729.4217531681061,729.7731289863586,728.3994109630585,None,728.3994109630585,None,728.3994109630585,None,-1,-1,1,3,681.4603805541992,726.463794708252,left,731.6843221187592,None,kyveli_pilot,icub,clamp,2021_Dec_17_1153,exp,2021.2.3,59.99988555930031,
right,go,1,0,1,0,10,5,65,3,732.1983389854431,None,1,0.4069950580596924,732.1983389854431,None,732.6809711456299,None,733.7074460983276,734.0363540649414,733.7074460983276,734.0363540649414,732.6809711456299,None,732.6809711456299,None,732.6809711456299,None,-1,-1,1,3,624.6662139892578,504.14109230041504,right,735.694342136383,None,kyveli_pilot,icub,clamp,2021_Dec_17_1153,exp,2021.2.3,59.99988555930031,
right,go,1,0,1,0,11,0,66,3,736.2147159576416,None,1,0.12135696411132812,736.2147159576416,None,736.4387631416321,None,737.4551100730896,737.8189861774445,737.4551100730896,737.8189861774445,736.4387631416321,None,736.4387631416321,None,736.4387631416321,None,-1,-1,1,3,613.7106418609619,611.8407249450684,right,739.536868095398,None,kyveli_pilot,icub,clamp,2021_Dec_17_1153,exp,2021.2.3,59.99988555930031,
left,go,1,0,1,0,11,1,67,0,740.0463089942932,None,1,0.08828997611999512,740.0463089942932,None,740.2200510501862,None,741.2372601032257,741.6006820201874,741.2372601032257,741.6006820201874,740.2200510501862,None,740.2200510501862,None,740.2200510501862,None,-1,-1,1,3,738.4226322174072,659.5690250396729,left,743.5172271728516,None,kyveli_pilot,icub,clamp,2021_Dec_17_1153,exp,2021.2.3,59.99988555930031,
left,stop,1,0,1,0,11,2,68,2,744.0245461463928,None,1,0.07892012596130371,744.0245461463928,None,744.1991150379181,None,745.2017841339111,745.5670201778412,745.2017841339111,745.5670201778412,744.1991150379181,None,744.1991150379181,None,744.1991150379181,None,450,350,1,3,417.3543453216553,-1.0,-1,749.4993531703949,None,kyveli_pilot,icub,clamp,2021_Dec_17_1153,exp,2021.2.3,59.99988555930031,
left,go,1,0,1,0,11,3,69,1,749.9967470169067,None,1,0.575167179107666,749.9967470169067,None,750.6742761135101,None,751.6564950942993,752.0050041675568,751.6564950942993,752.0050041675568,750.6742761135101,None,750.6742761135101,None,750.6742761135101,None,-1,-1,1,3,530.7528972625732,533.7624549865723,left,753.6359481811523,None,kyveli_pilot,icub,clamp,2021_Dec_17_1153,exp,2021.2.3,59.99988555930031,
right,go,1,0,1,0,11,4,70,4,754.1428680419922,None,1,0.17450809478759766,754.1428680419922,None,754.442214012146,None,755.4397790431976,755.7846510410309,755.4397790431976,755.7846510410309,754.442214012146,None,754.442214012146,None,754.442214012146,None,-1,-1,1,3,1006.0813426971436,485.3670597076416,right,757.8453481197357,None,kyveli_pilot,icub,clamp,2021_Dec_17_1153,exp,2021.2.3,59.99988555930031,
right,go,1,0,1,0,11,5,71,4,758.3812930583954,None,1,0.04702496528625488,758.3812930583954,None,758.552088022232,None,759.5687639713287,759.9287660121918,759.5687639713287,759.9287660121918,758.552088022232,None,758.552088022232,None,758.552088022232,None,-1,-1,1,3,40.14277458190918,591.2864208221436,right,761.0871829986572,None,kyveli_pilot,icub,clamp,2021_Dec_17_1153,exp,2021.2.3,59.99988555930031,
right,go,1,0,1,0,12,0,72,4,761.6221060752869,None,1,0.08541512489318848,761.6221060752869,None,761.7932150363922,None,762.79208111763,763.146388053894,762.79208111763,763.146388053894,761.7932150363922,None,761.7932150363922,None,761.7932150363922,None,-1,-1,1,3,388.7302875518799,486.99116706848145,right,764.5539009571075,None,kyveli_pilot,icub,clamp,2021_Dec_17_1153,exp,2021.2.3,59.99988555930031,
left,go,1,0,1,0,12,1,73,1,765.0674231052399,None,1,0.09102606773376465,765.0674231052399,None,765.2388021945953,None,766.2650380134583,766.6308619976044,766.2650380134583,766.6308619976044,765.2388021945953,None,765.2388021945953,None,765.2388021945953,None,-1,-1,1,3,660.9940528869629,563.1999969482422,left,768.3375120162964,None,kyveli_pilot,icub,clamp,2021_Dec_17_1153,exp,2021.2.3,59.99988555930031,
right,stop,1,0,1,0,12,2,74,5,768.8571510314941,None,1,0.04297995567321777,768.8571510314941,None,769.0223560333252,None,770.0465440750122,770.4006021022797,770.0465440750122,770.4006021022797,769.0223560333252,None,769.0223560333252,None,769.0223560333252,None,500,350,0,3,474.75481033325195,438.4136199951172,right,771.845409154892,None,kyveli_pilot,icub,clamp,2021_Dec_17_1153,exp,2021.2.3,59.99988555930031,
right,stop,1,0,1,0,12,3,75,5,772.3522219657898,None,1,0.07863116264343262,772.3522219657898,None,772.5265071392059,None,773.5391700267792,773.8916320800781,773.5391700267792,773.8916320800781,772.5265071392059,None,772.5265071392059,None,772.5265071392059,None,500,300,1,3,359.7087860107422,-1.0,-1,777.7952251434326,None,kyveli_pilot,icub,clamp,2021_Dec_17_1153,exp,2021.2.3,59.99988555930031,
left,stop,1,0,1,0,12,4,76,2,778.2882280349731,None,1,0.9386200904846191,778.2882280349731,None,779.3379130363464,None,780.3163831233978,780.6826679706573,780.3163831233978,780.6826679706573,779.3379130363464,None,779.3379130363464,None,779.3379130363464,None,500,350,0,3,844.796895980835,619.1713809967041,left,782.682343006134,None,kyveli_pilot,icub,clamp,2021_Dec_17_1153,exp,2021.2.3,59.99988555930031,
left,stop,1,0,1,0,12,5,77,2,783.1789791584015,None,1,0.1480391025543213,783.1789791584015,None,783.4124071598053,None,784.4362661838531,784.787024974823,784.4362661838531,784.787024974823,783.4124071598053,None,783.4124071598053,None,783.4124071598053,None,450,350,0,3,697.9999542236328,576.6456127166748,left,786.5776569843292,None,kyveli_pilot,icub,clamp,2021_Dec_17_1153,exp,2021.2.3,59.99988555930031,
right,go,2,0,2,0,0,0,0,4,804.7676291465759,None,1,4.07404088973999,804.7676291465759,None,808.9523561000824,None,809.9772641658783,810.3418941497803,809.9772641658783,810.3418941497803,808.9523561000824,None,808.9523561000824,None,808.9523561000824,None,-1,-1,1,3,508.55469703674316,431.7615032196045,right,811.7760381698608,None,kyveli_pilot,icub,clamp,2021_Dec_17_1153,exp,2021.2.3,59.99988555930031,
left,go,2,0,2,0,0,1,1,1,812.2894821166992,None,1,0.08538198471069336,812.2894821166992,None,812.4604780673981,None,813.4751570224762,813.8301160335541,813.4751570224762,813.8301160335541,812.4604780673981,None,812.4604780673981,None,812.4604780673981,None,-1,-1,1,3,528.472900390625,584.0311050415039,left,815.4669771194458,None,kyveli_pilot,icub,clamp,2021_Dec_17_1153,exp,2021.2.3,59.99988555930031,
left,go,2,0,2,0,0,2,2,0,816.0070521831512,None,1,0.11034107208251953,816.0070521831512,None,816.2419581413269,None,817.2570421695709,817.6089940071106,817.2570421695709,817.6089940071106,816.2419581413269,None,816.2419581413269,None,816.2419581413269,None,-1,-1,1,3,382.19523429870605,463.47808837890625,left,818.9643859863281,None,kyveli_pilot,icub,clamp,2021_Dec_17_1153,exp,2021.2.3,59.99988555930031,
left,go,2,0,2,0,0,3,3,0,819.4852750301361,None,1,0.09325981140136719,819.4852750301361,None,819.659126996994,None,820.6590001583099,820.9983661174774,820.6590001583099,820.9983661174774,819.659126996994,None,819.659126996994,None,819.659126996994,None,-1,-1,1,3,349.0579128265381,480.36766052246094,left,822.3798940181732,None,kyveli_pilot,icub,clamp,2021_Dec_17_1153,exp,2021.2.3,59.99988555930031,
left,go,2,0,2,0,0,4,4,1,822.8824961185455,None,1,0.11325597763061523,822.8824961185455,None,823.1136109828949,None,824.1331071853638,824.4787471294403,824.1331071853638,824.4787471294403,823.1136109828949,None,823.1136109828949,None,823.1136109828949,None,-1,-1,1,3,366.86062812805176,548.6140251159668,left,825.9242930412292,None,kyveli_pilot,icub,clamp,2021_Dec_17_1153,exp,2021.2.3,59.99988555930031,
left,go,2,0,2,0,0,5,5,1,826.4305500984192,None,1,0.2892749309539795,826.4305500984192,None,826.8488969802856,None,827.8571031093597,828.215451002121,827.8571031093597,828.215451002121,826.8488969802856,None,826.8488969802856,None,826.8488969802856,None,-1,-1,1,3,358.83426666259766,631.1602592468262,left,829.7367401123047,None,kyveli_pilot,icub,clamp,2021_Dec_17_1153,exp,2021.2.3,59.99988555930031,
left,go,2,0,2,0,1,0,6,1,830.2719130516052,None,1,0.1107170581817627,830.2719130516052,None,830.5059990882874,None,831.5111191272736,831.8518691062927,831.5111191272736,831.8518691062927,830.5059990882874,None,830.5059990882874,None,830.5059990882874,None,-1,-1,1,3,346.54951095581055,647.212028503418,left,833.4025521278381,None,kyveli_pilot,icub,clamp,2021_Dec_17_1153,exp,2021.2.3,59.99988555930031,
left,go,2,0,2,0,1,1,7,0,833.911276102066,None,1,0.02540111541748047,833.911276102066,None,834.0220911502838,None,835.0175731182098,835.366063117981,835.0175731182098,835.366063117981,834.0220911502838,None,834.0220911502838,None,834.0220911502838,None,-1,-1,1,3,328.74464988708496,562.3843669891357,left,836.7904419898987,None,kyveli_pilot,icub,clamp,2021_Dec_17_1153,exp,2021.2.3,59.99988555930031,
right,stop,2,0,2,0,1,2,8,5,837.3239810466766,None,1,0.05858612060546875,837.3239810466766,None,837.497967004776,None,838.5270011425018,838.8794720172882,838.5270011425018,838.8794720172882,837.497967004776,None,837.497967004776,None,837.497967004776,None,400,350,0,3,491.35637283325195,455.63578605651855,right,840.3623111248016,None,kyveli_pilot,icub,clamp,2021_Dec_17_1153,exp,2021.2.3,59.99988555930031,
right,stop,2,0,2,0,1,3,9,5,840.8798770904541,None,1,0.1986699104309082,840.8798770904541,None,841.1693451404572,None,842.1844429969788,842.5270590782166,842.1844429969788,842.5270590782166,841.1693451404572,None,841.1693451404572,None,841.1693451404572,None,400,300,1,3,490.7839298248291,-1.0,-1,846.5608830451965,None,kyveli_pilot,icub,clamp,2021_Dec_17_1153,exp,2021.2.3,59.99988555930031,
left,go,2,0,2,0,1,4,10,0,847.0556960105896,None,1,0.7940781116485596,847.0556960105896,None,847.9798669815063,None,848.9596769809723,849.310399055481,848.9596769809723,849.310399055481,847.9798669815063,None,847.9798669815063,None,847.9798669815063,None,-1,-1,1,3,353.5797595977783,527.3587703704834,left,850.738883972168,None,kyveli_pilot,icub,clamp,2021_Dec_17_1153,exp,2021.2.3,59.99988555930031,
right,stop,2,0,2,0,1,5,11,5,851.2560529708862,None,1,0.11168503761291504,851.2560529708862,None,851.4802660942078,None,852.5016930103302,852.8495700359344,852.5016930103302,852.8495700359344,851.4802660942078,None,851.4802660942078,None,851.4802660942078,None,400,350,1,3,446.32816314697266,-1.0,-1,856.8304960727692,None,kyveli_pilot,icub,clamp,2021_Dec_17_1153,exp,2021.2.3,59.99988555930031,
left,go,2,0,2,0,2,0,12,0,857.3268311023712,None,1,0.5840060710906982,857.3268311023712,None,858.0034120082855,None,858.9762110710144,859.3396270275116,858.9762110710144,859.3396270275116,858.0034120082855,None,858.0034120082855,None,858.0034120082855,None,-1,-1,1,3,620.4395294189453,479.8903465270996,left,860.9992899894714,None,kyveli_pilot,icub,clamp,2021_Dec_17_1153,exp,2021.2.3,59.99988555930031,
left,stop,2,0,2,0,2,1,13,2,861.5171890258789,None,1,0.07082104682922363,861.5171890258789,None,861.685868024826,None,862.6970570087433,863.0591220855713,862.6970570087433,863.0591220855713,861.685868024826,None,861.685868024826,None,861.685868024826,None,400,400,0,3,1085.2959156036377,377.3477077484131,left,865.061282157898,None,kyveli_pilot,icub,clamp,2021_Dec_17_1153,exp,2021.2.3,59.99988555930031,
right,go,2,0,2,0,2,2,14,3,865.5717620849609,None,1,0.20110011100769043,865.5717620849609,None,865.8682751655579,None,866.868546962738,867.2391149997711,866.868546962738,867.2391149997711,865.8682751655579,None,865.8682751655579,None,865.8682751655579,None,-1,-1,1,3,311.5425109863281,470.3559875488281,right,868.5579860210419,None,kyveli_pilot,icub,clamp,2021_Dec_17_1153,exp,2021.2.3,59.99988555930031,
left,go,2,0,2,0,2,3,15,1,869.0883350372314,None,1,0.02805018424987793,869.0883350372314,None,869.1967351436615,None,870.2214000225067,870.5681791305542,870.2214000225067,870.5681791305542,869.1967351436615,None,869.1967351436615,None,869.1967351436615,None,-1,-1,1,3,481.2886714935303,499.7701644897461,left,872.0799331665039,None,kyveli_pilot,icub,clamp,2021_Dec_17_1153,exp,2021.2.3,59.99988555930031,
left,stop,2,0,2,0,2,4,16,2,872.5978951454163,None,1,0.0819249153137207,872.5978951454163,None,872.7706279754639,None,873.7903599739075,874.1416821479797,873.7903599739075,874.1416821479797,872.7706279754639,None,872.7706279754639,None,872.7706279754639,None,350,400,0,3,501.1179447174072,477.933406829834,left,875.6534509658813,None,kyveli_pilot,icub,clamp,2021_Dec_17_1153,exp,2021.2.3,59.99988555930031,
right,stop,2,0,2,0,2,5,17,5,876.1600539684296,None,1,0.17534899711608887,876.1600539684296,None,876.4538819789886,None,877.4821710586548,877.8427631855011,877.4821710586548,877.8427631855011,876.4538819789886,None,876.4538819789886,None,876.4538819789886,None,300,400,1,3,285.97116470336914,-1.0,-1,881.6284780502319,None,kyveli_pilot,icub,clamp,2021_Dec_17_1153,exp,2021.2.3,59.99988555930031,
right,go,2,0,2,0,3,0,18,4,882.125116109848,None,1,0.541611909866333,882.125116109848,None,882.8019721508026,None,883.7769770622253,884.1293339729309,883.7769770622253,884.1293339729309,882.8019721508026,None,882.8019721508026,None,882.8019721508026,None,-1,-1,1,3,392.9717540740967,578.6228179931641,right,885.6741421222687,None,kyveli_pilot,icub,clamp,2021_Dec_17_1153,exp,2021.2.3,59.99988555930031,
right,go,2,0,2,0,3,1,19,4,886.2012491226196,None,1,2.7695510387420654,886.2012491226196,None,889.0954670906067,None,890.0695190429688,890.4291741847992,890.0695190429688,890.4291741847992,889.0954670906067,None,889.0954670906067,None,889.0954670906067,None,-1,-1,1,3,506.3621997833252,433.5033893585205,right,891.9051370620728,None,kyveli_pilot,icub,clamp,2021_Dec_17_1153,exp,2021.2.3,59.99988555930031,
left,go,2,0,2,0,3,2,20,1,892.4221091270447,None,1,0.09601378440856934,892.4221091270447,None,892.6451480388641,None,893.6397461891174,894.0096499919891,893.6397461891174,894.0096499919891,892.6451480388641,None,892.6451480388641,None,892.6451480388641,None,-1,-1,1,3,413.16723823547363,556.1747550964355,left,895.5076961517334,None,kyveli_pilot,icub,clamp,2021_Dec_17_1153,exp,2021.2.3,59.99988555930031,
right,go,2,0,2,0,3,3,21,4,896.027419090271,None,1,0.15621304512023926,896.027419090271,None,896.2642171382904,None,897.2676811218262,897.624253988266,897.2676811218262,897.624253988266,896.2642171382904,None,896.2642171382904,None,896.2642171382904,None,-1,-1,1,3,500.71191787719727,571.4917182922363,right,899.2269670963287,None,kyveli_pilot,icub,clamp,2021_Dec_17_1153,exp,2021.2.3,59.99988555930031,
left,stop,2,0,2,0,3,4,22,2,899.7328250408173,None,1,0.05063605308532715,899.7328250408173,None,899.9018831253052,None,900.8941390514374,901.2658910751343,900.8941390514374,901.2658910751343,899.9018831253052,None,899.9018831253052,None,899.9018831253052,None,300,450,1,3,521.8172073364258,-1.0,-1,905.3061430454254,None,kyveli_pilot,icub,clamp,2021_Dec_17_1153,exp,2021.2.3,59.99988555930031,
left,go,2,0,2,0,3,5,23,0,905.8018109798431,None,1,0.6879088878631592,905.8018109798431,None,906.6005530357361,None,907.6039459705353,907.9631271362305,907.6039459705353,907.9631271362305,906.6005530357361,None,906.6005530357361,None,906.6005530357361,None,-1,-1,1,3,861.391544342041,415.9209728240967,left,909.7720830440521,None,kyveli_pilot,icub,clamp,2021_Dec_17_1153,exp,2021.2.3,59.99988555930031,
right,go,2,0,2,0,4,0,24,3,910.2775750160217,None,1,0.11783003807067871,910.2775750160217,None,910.5115439891815,None,911.5044431686401,911.8570601940155,911.5044431686401,911.8570601940155,910.5115439891815,None,910.5115439891815,None,910.5115439891815,None,-1,-1,1,3,830.8846950531006,392.7450180053711,right,913.6133990287781,None,kyveli_pilot,icub,clamp,2021_Dec_17_1153,exp,2021.2.3,59.99988555930031,
right,go,2,0,2,0,4,1,25,3,914.1440110206604,None,1,0.040307044982910156,914.1440110206604,None,914.3129971027374,None,915.3181240558624,915.6809480190277,915.3181240558624,915.6809480190277,914.3129971027374,None,914.3129971027374,None,914.3129971027374,None,-1,-1,1,3,572.9942321777344,541.1980152130127,right,917.3140411376953,None,kyveli_pilot,icub,clamp,2021_Dec_17_1153,exp,2021.2.3,59.99988555930031,
right,stop,2,0,2,0,4,2,26,5,917.8400440216064,None,1,0.01925516128540039,917.8400440216064,None,917.9498660564423,None,918.9611911773682,919.3057901859283,918.9611911773682,919.3057901859283,917.9498660564423,None,917.9498660564423,None,917.9498660564423,None,350,450,0,3,537.8844738006592,569.1254138946533,right,920.9447400569916,None,kyveli_pilot,icub,clamp,2021_Dec_17_1153,exp,2021.2.3,59.99988555930031,
left,go,2,0,2,0,4,3,27,0,921.4661910533905,None,1,0.0593719482421875,921.4661910533905,None,921.6379330158234,None,922.658212184906,923.0068399906158,922.658212184906,923.0068399906158,921.6379330158234,None,921.6379330158234,None,921.6379330158234,None,-1,-1,1,3,382.46774673461914,456.51865005493164,left,924.3787331581116,None,kyveli_pilot,icub,clamp,2021_Dec_17_1153,exp,2021.2.3,59.99988555930031,
left,stop,2,0,2,0,4,4,28,2,924.8854620456696,None,1,0.4362459182739258,924.8854620456696,None,925.4329149723053,None,926.4693059921265,926.8278579711914,926.4693059921265,926.8278579711914,925.4329149723053,None,925.4329149723053,None,925.4329149723053,None,350,400,1,3,358.35957527160645,-1.0,-1,930.6766591072083,None,kyveli_pilot,icub,clamp,2021_Dec_17_1153,exp,2021.2.3,59.99988555930031,
left,go,2,0,2,0,4,5,29,1,931.1732110977173,None,1,0.9384961128234863,931.1732110977173,None,932.2242391109467,None,933.1966650485992,933.5463881492615,933.1966650485992,933.5463881492615,932.2242391109467,None,932.2242391109467,None,932.2242391109467,None,-1,-1,1,3,387.3927593231201,794.4846153259277,left,935.3026449680328,None,kyveli_pilot,icub,clamp,2021_Dec_17_1153,exp,2021.2.3,59.99988555930031,
left,stop,2,0,2,0,5,0,30,2,935.8061301708221,None,1,0.1875019073486328,935.8061301708221,None,936.1047329902649,None,937.1173810958862,937.4810140132904,937.1173810958862,937.4810140132904,936.1047329902649,None,936.1047329902649,None,936.1047329902649,None,400,400,0,3,283.94103050231934,434.78941917419434,left,938.735570192337,None,kyveli_pilot,icub,clamp,2021_Dec_17_1153,exp,2021.2.3,59.99988555930031,
right,go,2,0,2,0,5,1,31,3,939.2409811019897,None,1,0.13132691383361816,939.2409811019897,None,939.4730019569397,None,940.5008490085602,940.8533380031586,940.5008490085602,940.8533380031586,939.4730019569397,None,939.4730019569397,None,939.4730019569397,None,-1,-1,1,3,313.55905532836914,387.9127502441406,right,942.0877261161804,None,kyveli_pilot,icub,clamp,2021_Dec_17_1153,exp,2021.2.3,59.99988555930031,
right,go,2,0,2,0,5,2,32,4,942.6004991531372,None,1,0.07393813133239746,942.6004991531372,None,942.7761380672455,None,943.7998850345612,944.1412150859833,943.7998850345612,944.1412150859833,942.7761380672455,None,942.7761380672455,None,942.7761380672455,None,-1,-1,1,3,345.96896171569824,548.1157302856445,right,945.568058013916,None,kyveli_pilot,icub,clamp,2021_Dec_17_1153,exp,2021.2.3,59.99988555930031,
right,go,2,0,2,0,5,3,33,4,946.0713391304016,None,1,0.11509490013122559,946.0713391304016,None,946.3061630725861,None,947.321631193161,947.6797649860382,947.321631193161,947.6797649860382,946.3061630725861,None,946.3061630725861,None,946.3061630725861,None,-1,-1,1,3,291.1105155944824,460.5686664581299,right,948.9668610095978,None,kyveli_pilot,icub,clamp,2021_Dec_17_1153,exp,2021.2.3,59.99988555930031,
left,go,2,0,2,0,5,4,34,0,949.4873490333557,None,1,0.178131103515625,949.4873490333557,None,949.7817749977112,None,950.7929899692535,951.154541015625,950.7929899692535,951.154541015625,949.7817749977112,None,949.7817749977112,None,949.7817749977112,None,-1,-1,1,3,383.20112228393555,586.449384689331,left,952.6568100452423,None,kyveli_pilot,icub,clamp,2021_Dec_17_1153,exp,2021.2.3,59.99988555930031,
left,go,2,0,2,0,5,5,35,1,953.1833531856537,None,1,0.09525799751281738,953.1833531856537,None,953.4162311553955,None,954.431291103363,954.7926640510559,954.431291103363,954.7926640510559,953.4162311553955,None,953.4162311553955,None,953.4162311553955,None,-1,-1,1,3,547.9254722595215,466.60327911376953,left,956.3369340896606,None,kyveli_pilot,icub,clamp,2021_Dec_17_1153,exp,2021.2.3,59.99988555930031,
right,go,2,0,2,0,6,0,36,3,956.8717570304871,None,1,0.20914602279663086,956.8717570304871,None,957.1665320396423,None,958.1717779636383,958.519984960556,958.1717779636383,958.519984960556,957.1665320396423,None,957.1665320396423,None,957.1665320396423,None,-1,-1,1,3,352.40912437438965,427.5519847869873,right,959.8146131038666,None,kyveli_pilot,icub,clamp,2021_Dec_17_1153,exp,2021.2.3,59.99988555930031,
left,go,2,0,2,0,6,1,37,1,960.3418440818787,None,1,0.10834288597106934,960.3418440818787,None,960.573762178421,None,961.5933589935303,961.9565961360931,961.5933589935303,961.9565961360931,960.573762178421,None,960.573762178421,None,960.573762178421,None,-1,-1,1,3,339.5237922668457,463.7415409088135,left,963.247640132904,None,kyveli_pilot,icub,clamp,2021_Dec_17_1153,exp,2021.2.3,59.99988555930031,
right,go,2,0,2,0,6,2,38,3,963.7780051231384,None,1,0.24933385848999023,963.7780051231384,None,964.1342000961304,None,965.1691501140594,965.5260190963745,965.1691501140594,965.5260190963745,964.1342000961304,None,964.1342000961304,None,964.1342000961304,None,-1,-1,1,3,311.9392395019531,574.4848251342773,right,966.902449131012,None,kyveli_pilot,icub,clamp,2021_Dec_17_1153,exp,2021.2.3,59.99988555930031,
right,go,2,0,2,0,6,3,39,4,967.4075541496277,None,1,0.05783200263977051,967.4075541496277,None,967.5821580886841,None,968.584902048111,968.9441010951996,968.584902048111,968.9441010951996,967.5821580886841,None,967.5821580886841,None,967.5821580886841,None,,,0,3,3000.575304031372,-1.0,-1,972.4852221012115,None,kyveli_pilot,icub,clamp,2021_Dec_17_1153,exp,2021.2.3,59.99988555930031,
left,stop,2,0,2,0,6,4,40,2,972.9827151298523,None,1,0.9189620018005371,972.9827151298523,None,974.0332431793213,None,975.0170331001282,975.3554060459137,975.0170331001282,975.3554060459137,974.0332431793213,None,974.0332431793213,None,974.0332431793213,None,350,400,0,3,740.9660816192627,429.8989772796631,left,977.0809681415558,None,kyveli_pilot,icub,clamp,2021_Dec_17_1153,exp,2021.2.3,59.99988555930031,
right,stop,2,0,2,0,6,5,41,5,977.587867975235,None,1,0.27864599227905273,977.587867975235,None,977.9470331668854,None,978.9523220062256,979.3260669708252,978.9523220062256,979.3260669708252,977.9470331668854,None,977.9470331668854,None,977.9470331668854,None,300,400,0,3,548.2618808746338,580.0647735595703,right,980.9455389976501,None,kyveli_pilot,icub,clamp,2021_Dec_17_1153,exp,2021.2.3,59.99988555930031,
right,go,2,0,2,0,7,0,42,4,981.4639301300049,None,1,0.15599417686462402,981.4639301300049,None,981.7476511001587,None,982.7503621578217,983.1129801273346,982.7503621578217,983.1129801273346,981.7476511001587,None,981.7476511001587,None,981.7476511001587,None,-1,-1,1,3,396.9759941101074,766.5235996246338,right,984.792042016983,None,kyveli_pilot,icub,clamp,2021_Dec_17_1153,exp,2021.2.3,59.99988555930031,
left,stop,2,0,2,0,7,1,43,2,985.3090801239014,None,1,0.14774799346923828,985.3090801239014,None,985.5422351360321,None,986.5626499652863,986.9202001094818,986.5626499652863,986.9202001094818,985.5422351360321,None,985.5422351360321,None,985.5422351360321,None,300,350,1,3,407.4852466583252,-1.0,-1,990.858715057373,None,kyveli_pilot,icub,clamp,2021_Dec_17_1153,exp,2021.2.3,59.99988555930031,
right,go,2,0,2,0,7,2,44,4,991.356034040451,None,1,0.7806000709533691,991.356034040451,None,992.2210931777954,None,993.2004871368408,993.5528509616852,993.2004871368408,993.5528509616852,992.2210931777954,None,992.2210931777954,None,992.2210931777954,None,-1,-1,1,3,474.1637706756592,633.4757804870605,right,995.1918261051178,None,kyveli_pilot,icub,clamp,2021_Dec_17_1153,exp,2021.2.3,59.99988555930031,
right,go,2,0,2,0,7,3,45,3,995.7021009922028,None,1,0.1106419563293457,995.7021009922028,None,995.9367861747742,None,996.9372341632843,997.2895050048828,996.9372341632843,997.2895050048828,995.9367861747742,None,995.9367861747742,None,995.9367861747742,None,-1,-1,1,3,368.5593605041504,468.72568130493164,right,998.6602530479431,None,kyveli_pilot,icub,clamp,2021_Dec_17_1153,exp,2021.2.3,59.99988555930031,
right,stop,2,0,2,0,7,4,46,5,999.1929399967194,None,1,0.04436492919921875,999.1929399967194,None,999.3618960380554,None,1000.3642840385437,1000.7301340103149,1000.3642840385437,1000.7301340103149,999.3618960380554,None,999.3618960380554,None,999.3618960380554,None,350,350,1,3,349.7583866119385,-1.0,-1,1004.611485004425,None,kyveli_pilot,icub,clamp,2021_Dec_17_1153,exp,2021.2.3,59.99988555930031,
right,stop,2,0,2,0,7,5,47,5,1005.1093080043793,None,1,0.776310920715332,1005.1093080043793,None,1005.9748160839081,None,1006.9518551826477,1007.3043210506439,1006.9518551826477,1007.3043210506439,1005.9748160839081,None,1005.9748160839081,None,1005.9748160839081,None,350,400,0,3,394.4742679595947,478.41715812683105,right,1008.7393159866333,None,kyveli_pilot,icub,clamp,2021_Dec_17_1153,exp,2021.2.3,59.99988555930031,
right,go,2,0,2,0,8,0,48,3,1009.2526440620422,None,1,0.23560500144958496,1009.2526440620422,None,1009.6068830490112,None,1010.6353390216827,1010.9808549880981,1010.6353390216827,1010.9808549880981,1009.6068830490112,None,1009.6068830490112,None,1009.6068830490112,None,-1,-1,1,3,352.68640518188477,494.6784973144531,right,1012.3588709831238,None,kyveli_pilot,icub,clamp,2021_Dec_17_1153,exp,2021.2.3,59.99988555930031,
right,stop,2,0,2,0,8,1,49,5,1012.8617491722107,None,1,0.11674690246582031,1012.8617491722107,None,1013.0939021110535,None,1014.0968010425568,1014.4546151161194,1014.0968010425568,1014.4546151161194,1013.0939021110535,None,1013.0939021110535,None,1013.0939021110535,None,350,350,1,3,360.363245010376,-1.0,-1,1018.3511431217194,None,kyveli_pilot,icub,clamp,2021_Dec_17_1153,exp,2021.2.3,59.99988555930031,
left,go,2,0,2,0,8,2,50,1,1018.868577003479,None,1,0.6770768165588379,1018.868577003479,None,1019.6640319824219,None,1020.6383061408997,1020.9900860786438,1020.6383061408997,1020.9900860786438,1019.6640319824219,None,1019.6640319824219,None,1019.6640319824219,None,-1,-1,1,3,417.2017574310303,477.36120223999023,left,1022.4438080787659,None,kyveli_pilot,icub,clamp,2021_Dec_17_1153,exp,2021.2.3,59.99988555930031,
left,stop,2,0,2,0,8,3,51,2,1022.9683589935303,None,1,0.17893600463867188,1022.9683589935303,None,1023.2577621936798,None,1024.268548965454,1024.6368200778961,1024.268548965454,1024.6368200778961,1023.2577621936798,None,1023.2577621936798,None,1023.2577621936798,None,350,400,0,3,523.1795310974121,546.471118927002,left,1026.2438871860504,None,kyveli_pilot,icub,clamp,2021_Dec_17_1153,exp,2021.2.3,59.99988555930031,
left,go,2,0,2,0,8,4,52,0,1026.7601220607758,None,1,0.14642715454101562,1026.7601220607758,None,1026.9974250793457,None,1028.0151190757751,1028.3649699687958,1028.0151190757751,1028.3649699687958,1026.9974250793457,None,1026.9974250793457,None,1026.9974250793457,None,-1,-1,1,3,426.07593536376953,482.56468772888184,left,1029.8117690086365,None,kyveli_pilot,icub,clamp,2021_Dec_17_1153,exp,2021.2.3,59.99988555930031,
right,stop,2,0,2,0,8,5,53,5,1030.3258910179138,None,1,0.08432912826538086,1030.3258910179138,None,1030.5007050037384,None,1031.529265165329,1031.8897550106049,1031.529265165329,1031.8897550106049,1030.5007050037384,None,1030.5007050037384,None,1030.5007050037384,None,300,400,0,3,452.1303176879883,578.009843826294,right,1033.4137761592865,None,kyveli_pilot,icub,clamp,2021_Dec_17_1153,exp,2021.2.3,59.99988555930031,
left,stop,2,0,2,0,9,0,54,2,1033.9342231750488,None,1,0.17115497589111328,1033.9342231750488,None,1034.2283260822296,None,1035.2248930931091,1035.5920341014862,1035.2248930931091,1035.5920341014862,1034.2283260822296,None,1034.2283260822296,None,1034.2283260822296,None,300,350,1,3,335.5865478515625,-1.0,-1,1039.4547610282898,None,kyveli_pilot,icub,clamp,2021_Dec_17_1153,exp,2021.2.3,59.99988555930031,
right,go,2,0,2,0,9,1,55,3,1039.951523065567,None,1,0.6890420913696289,1039.951523065567,None,1040.753545999527,None,1041.7317790985107,1042.083534002304,1041.7317790985107,1042.083534002304,1040.753545999527,None,1040.753545999527,None,1040.753545999527,None,-1,-1,1,3,331.4526081085205,673.2268333435059,right,1043.6337201595306,None,kyveli_pilot,icub,clamp,2021_Dec_17_1153,exp,2021.2.3,59.99988555930031,
left,stop,2,0,2,0,9,2,56,2,1044.1445240974426,None,1,0.1499190330505371,1044.1445240974426,None,1044.3797070980072,None,1045.3885161876678,1045.7401471138,1045.3885161876678,1045.7401471138,1044.3797070980072,None,1044.3797070980072,None,1044.3797070980072,None,350,350,0,3,424.314022064209,708.1751823425293,left,1047.3989040851593,None,kyveli_pilot,icub,clamp,2021_Dec_17_1153,exp,2021.2.3,59.99988555930031,
left,go,2,0,2,0,9,3,57,0,1047.9094359874725,None,1,0.09171581268310547,1047.9094359874725,None,1048.0816640853882,None,1049.0771021842957,1049.4203350543976,1049.0771021842957,1049.4203350543976,1048.0816640853882,None,1048.0816640853882,None,1048.0816640853882,None,-1,-1,1,3,448.6985206604004,853.5566329956055,left,1051.2987031936646,None,kyveli_pilot,icub,clamp,2021_Dec_17_1153,exp,2021.2.3,59.99988555930031,
right,go,2,0,2,0,9,4,58,3,1051.8086791038513,None,1,0.14412808418273926,1051.8086791038513,None,1052.0436050891876,None,1053.0523149967194,1053.410845041275,1053.0523149967194,1053.410845041275,1052.0436050891876,None,1052.0436050891876,None,1052.0436050891876,None,-1,-1,1,3,534.8007678985596,559.5443248748779,right,1055.024001121521,None,kyveli_pilot,icub,clamp,2021_Dec_17_1153,exp,2021.2.3,59.99988555930031,
right,go,2,0,2,0,9,5,59,4,1055.5294780731201,None,1,0.1006171703338623,1055.5294780731201,None,1055.7581810951233,None,1056.782308101654,1057.1384091377258,1056.782308101654,1057.1384091377258,1055.7581810951233,None,1055.7581810951233,None,1055.7581810951233,None,-1,-1,1,3,317.4254894256592,371.92559242248535,right,1058.3585681915283,None,kyveli_pilot,icub,clamp,2021_Dec_17_1153,exp,2021.2.3,59.99988555930031,
right,stop,2,0,2,0,10,0,60,5,1058.8960649967194,None,1,0.1289820671081543,1058.8960649967194,None,1059.1314301490784,None,1060.1297121047974,1060.4779369831085,1060.1297121047974,1060.4779369831085,1059.1314301490784,None,1059.1314301490784,None,1059.1314301490784,None,300,350,0,3,266.33405685424805,377.6373863220215,right,1061.6566259860992,None,kyveli_pilot,icub,clamp,2021_Dec_17_1153,exp,2021.2.3,59.99988555930031,
left,go,2,0,2,0,10,1,61,0,1062.169084072113,None,1,0.11294388771057129,1062.169084072113,None,1062.400838136673,None,1063.4078919887543,1063.748389005661,1063.4078919887543,1063.748389005661,1062.400838136673,None,1062.400838136673,None,1062.400838136673,None,-1,-1,1,3,336.4911079406738,568.9020156860352,left,1065.1836800575256,None,kyveli_pilot,icub,clamp,2021_Dec_17_1153,exp,2021.2.3,59.99988555930031,
left,stop,2,0,2,0,10,2,62,2,1065.704178094864,None,1,1.8843920230865479,1065.704178094864,None,1067.6739749908447,None,1068.6610610485077,1069.0104641914368,1068.6610610485077,1069.0104641914368,1067.6739749908447,None,1067.6739749908447,None,1067.6739749908447,None,300,300,1,3,546.7004776000977,-1.0,-1,1073.1260080337524,None,kyveli_pilot,icub,clamp,2021_Dec_17_1153,exp,2021.2.3,59.99988555930031,
right,go,2,0,2,0,10,3,63,3,1073.6224811077118,None,1,0.6461260318756104,1073.6224811077118,None,1074.3616361618042,None,1075.3431990146637,1075.6682829856873,1075.3431990146637,1075.6682829856873,1074.3616361618042,None,1074.3616361618042,None,1074.3616361618042,None,-1,-1,1,3,369.3983554840088,639.7356986999512,right,1077.2386679649353,None,kyveli_pilot,icub,clamp,2021_Dec_17_1153,exp,2021.2.3,59.99988555930031,
right,stop,2,0,2,0,10,4,64,5,1077.7568380832672,None,1,0.08889007568359375,1077.7568380832672,None,1077.9207501411438,None,1078.9115061759949,1079.2625930309296,1078.9115061759949,1079.2625930309296,1077.9207501411438,None,1077.9207501411438,None,1077.9207501411438,None,350,300,1,3,639.1217708587646,-1.0,-1,1083.435189962387,None,kyveli_pilot,icub,clamp,2021_Dec_17_1153,exp,2021.2.3,59.99988555930031,
left,stop,2,0,2,0,10,5,65,2,1083.9327771663666,None,1,0.49059391021728516,1083.9327771663666,None,1084.5485739707947,None,1085.5368089675903,1085.8798580169678,1085.5368089675903,1085.8798580169678,1084.5485739707947,None,1084.5485739707947,None,1084.5485739707947,None,350,350,1,3,532.970666885376,-1.0,-1,1089.9486951828003,None,kyveli_pilot,icub,clamp,2021_Dec_17_1153,exp,2021.2.3,59.99988555930031,
left,go,2,0,2,0,11,0,66,1,1090.4474391937256,None,1,0.6700520515441895,1090.4474391937256,None,1091.248262166977,None,1092.2290661334991,1092.5770881175995,1092.2290661334991,1092.5770881175995,1091.248262166977,None,1091.248262166977,None,1091.248262166977,None,-1,-1,1,3,396.06714248657227,650.6309509277344,left,1094.184902191162,None,kyveli_pilot,icub,clamp,2021_Dec_17_1153,exp,2021.2.3,59.99988555930031,
left,go,2,0,2,0,11,1,67,0,1094.684564113617,None,1,0.0872502326965332,1094.684564113617,None,1094.8571400642395,None,1095.8458411693573,1096.1978740692139,1095.8458411693573,1096.1978740692139,1094.8571400642395,None,1094.8571400642395,None,1094.8571400642395,None,-1,-1,1,3,493.7090873718262,664.8495197296143,left,1097.892049074173,None,kyveli_pilot,icub,clamp,2021_Dec_17_1153,exp,2021.2.3,59.99988555930031,
right,go,2,0,2,0,11,2,68,4,1098.4146881103516,None,1,0.12038207054138184,1098.4146881103516,None,1098.6380569934845,None,1099.6672439575195,1099.9879760742188,1099.6672439575195,1099.9879760742188,1098.6380569934845,None,1098.6380569934845,None,1098.6380569934845,None,-1,-1,1,3,354.8431396484375,848.2773303985596,right,1101.7214891910553,None,kyveli_pilot,icub,clamp,2021_Dec_17_1153,exp,2021.2.3,59.99988555930031,
left,go,2,0,2,0,11,3,69,1,1102.2417471408844,None,1,0.18375706672668457,1102.2417471408844,None,1102.536045074463,None,1103.5285031795502,1103.879981994629,1103.5285031795502,1103.879981994629,1102.536045074463,None,1102.536045074463,None,1102.536045074463,None,-1,-1,1,3,324.7718811035156,597.9297161102295,left,1105.3705019950867,None,kyveli_pilot,icub,clamp,2021_Dec_17_1153,exp,2021.2.3,59.99988555930031,
left,stop,2,0,2,0,11,4,70,2,1105.885528087616,None,1,0.07245707511901855,1105.885528087616,None,1106.0552141666412,None,1107.0939140319824,1107.46200299263,1107.0939140319824,1107.46200299263,1106.0552141666412,None,1106.0552141666412,None,1106.0552141666412,None,400,350,1,3,412.8739833831787,-1.0,-1,1111.3600270748138,None,kyveli_pilot,icub,clamp,2021_Dec_17_1153,exp,2021.2.3,59.99988555930031,
right,go,2,0,2,0,11,5,71,4,1111.8951761722565,None,1,0.7652900218963623,1111.8951761722565,None,1112.7600591182709,None,1113.74813914299,1114.1172471046448,1113.74813914299,1114.1172471046448,1112.7600591182709,None,1112.7600591182709,None,1112.7600591182709,None,-1,-1,1,3,572.0975399017334,1011.0602378845215,right,1116.218824148178,None,kyveli_pilot,icub,clamp,2021_Dec_17_1153,exp,2021.2.3,59.99988555930031,
right,stop,2,0,2,0,12,0,72,5,1116.735288143158,None,1,2.545132875442505,1116.735288143158,None,1119.3890781402588,None,1120.3777589797974,1120.7080800533295,1120.3777589797974,1120.7080800533295,1119.3890781402588,None,1119.3890781402588,None,1119.3890781402588,None,450,350,0,3,453.2334804534912,458.1027030944824,right,1122.1989531517029,None,kyveli_pilot,icub,clamp,2021_Dec_17_1153,exp,2021.2.3,59.99988555930031,
right,go,2,0,2,0,12,1,73,4,1122.7174100875854,None,1,0.07641196250915527,1122.7174100875854,None,1122.8810741901398,None,1123.8902180194855,1124.249344110489,1123.8902180194855,1124.249344110489,1122.8810741901398,None,1122.8810741901398,None,1122.8810741901398,None,-1,-1,1,3,434.36264991760254,561.7315769195557,right,1125.7707619667053,None,kyveli_pilot,icub,clamp,2021_Dec_17_1153,exp,2021.2.3,59.99988555930031,
left,go,2,0,2,0,12,2,74,1,1126.2923891544342,None,1,0.09357094764709473,1126.2923891544342,None,1126.4662370681763,None,1127.484836101532,1127.8370871543884,1127.484836101532,1127.8370871543884,1126.4662370681763,None,1126.4662370681763,None,1126.4662370681763,None,-1,-1,1,3,371.4175224304199,524.9743461608887,left,1129.2537779808044,None,kyveli_pilot,icub,clamp,2021_Dec_17_1153,exp,2021.2.3,59.99988555930031,
right,go,2,0,2,0,12,3,75,3,1129.7717909812927,None,1,0.0945119857788086,1129.7717909812927,None,1129.941605091095,None,1130.9404401779175,1131.290395975113,1130.9404401779175,1131.290395975113,1129.941605091095,None,1129.941605091095,None,1129.941605091095,None,-1,-1,1,3,555.0720691680908,542.5446033477783,right,1132.9195981025696,None,kyveli_pilot,icub,clamp,2021_Dec_17_1153,exp,2021.2.3,59.99988555930031,
right,go,2,0,2,0,12,4,76,3,1133.437402009964,None,1,0.18947505950927734,1133.437402009964,None,1133.7283899784088,None,1134.7504251003265,1135.0873789787292,1134.7504251003265,1135.0873789787292,1133.7283899784088,None,1133.7283899784088,None,1133.7283899784088,None,-1,-1,1,3,326.8404006958008,517.754077911377,right,1136.463534116745,None,kyveli_pilot,icub,clamp,2021_Dec_17_1153,exp,2021.2.3,59.99988555930031,
left,go,2,0,2,0,12,5,77,0,1136.9817900657654,None,1,0.270892858505249,1136.9817900657654,None,1137.3383600711823,None,1138.3368360996246,1138.7080030441284,1138.3368360996246,1138.7080030441284,1137.3383600711823,None,1137.3383600711823,None,1137.3383600711823,None,-1,-1,1,3,344.85435485839844,538.520336151123,left,1140.124428987503,None,kyveli_pilot,icub,clamp,2021_Dec_17_1153,exp,2021.2.3,59.99988555930031,
left,go,3,0,3,0,0,0,0,1,1153.0007190704346,None,1,7.867093801498413,1153.0007190704346,None,1160.9532120227814,None,1161.95041513443,1162.3122940063477,1161.95041513443,1162.3122940063477,1160.9532120227814,None,1160.9532120227814,None,1160.9532120227814,None,-1,-1,1,3,582.0786952972412,417.48929023742676,left,1163.8435111045837,None,kyveli_pilot,icub,clamp,2021_Dec_17_1153,exp,2021.2.3,59.99988555930031,
right,go,3,0,3,0,0,1,1,4,1164.3801469802856,None,1,0.12679481506347656,1164.3801469802856,None,1164.6138310432434,None,1165.6129021644592,1165.9664270877838,1165.6129021644592,1165.9664270877838,1164.6138310432434,None,1164.6138310432434,None,1164.6138310432434,None,-1,-1,1,3,348.82187843322754,503.13711166381836,right,1167.3522469997406,None,kyveli_pilot,icub,clamp,2021_Dec_17_1153,exp,2021.2.3,59.99988555930031,
left,stop,3,0,3,0,0,2,2,2,1167.8714799880981,None,1,0.10814499855041504,1167.8714799880981,None,1168.102991104126,None,1169.1180391311646,1169.4653611183167,1169.1180391311646,1169.4653611183167,1168.102991104126,None,1168.102991104126,None,1168.102991104126,None,450,300,0,3,203.68695259094238,537.7953052520752,left,1170.7445940971375,None,kyveli_pilot,icub,clamp,2021_Dec_17_1153,exp,2021.2.3,59.99988555930031,
right,stop,3,0,3,0,0,3,3,5,1171.25532412529,None,1,0.39620089530944824,1171.25532412529,None,1171.7367119789124,None,1172.741585969925,1173.099608182907,1172.741585969925,1173.099608182907,1171.7367119789124,None,1171.7367119789124,None,1171.7367119789124,None,400,300,0,3,260.42675971984863,485.2018356323242,right,1174.3718020915985,None,kyveli_pilot,icub,clamp,2021_Dec_17_1153,exp,2021.2.3,59.99988555930031,
left,go,3,0,3,0,0,4,4,1,1174.8870041370392,None,1,0.02343606948852539,1174.8870041370392,None,1174.99285197258,None,1175.9988100528717,1176.353000164032,1175.9988100528717,1176.353000164032,1174.99285197258,None,1174.99285197258,None,1174.99285197258,None,-1,-1,1,3,258.28051567077637,477.3674011230469,left,1177.6170270442963,None,kyveli_pilot,icub,clamp,2021_Dec_17_1153,exp,2021.2.3,59.99988555930031,
left,go,3,0,3,0,0,5,5,1,1178.1404371261597,None,1,0.018418073654174805,1178.1404371261597,None,1178.249634027481,None,1179.236592054367,1179.5626511573792,1179.236592054367,1179.5626511573792,1178.249634027481,None,1178.249634027481,None,1178.249634027481,None,-1,-1,1,3,422.7766990661621,479.3062210083008,left,1181.0391590595245,None,kyveli_pilot,icub,clamp,2021_Dec_17_1153,exp,2021.2.3,59.99988555930031,
left,go,3,0,3,0,1,0,6,0,1181.5574970245361,None,1,0.044413089752197266,1181.5574970245361,None,1181.7260251045227,None,1182.7315201759338,1183.0573091506958,1182.7315201759338,1183.0573091506958,1181.7260251045227,None,1181.7260251045227,None,1181.7260251045227,None,-1,-1,1,3,341.11523628234863,615.0856018066406,left,1184.5838780403137,None,kyveli_pilot,icub,clamp,2021_Dec_17_1153,exp,2021.2.3,59.99988555930031,
right,go,3,0,3,0,1,1,7,4,1185.0997619628906,None,1,0.009156942367553711,1185.0997619628906,None,1185.2066950798035,None,1186.1948010921478,1186.5619180202484,1186.1948010921478,1186.5619180202484,1185.2066950798035,None,1185.2066950798035,None,1185.2066950798035,None,-1,-1,1,3,315.1845932006836,442.77453422546387,right,1187.8536040782928,None,kyveli_pilot,icub,clamp,2021_Dec_17_1153,exp,2021.2.3,59.99988555930031,
left,go,3,0,3,0,1,2,8,0,1188.3665661811829,None,1,0.08028006553649902,1188.3665661811829,None,1188.5355820655823,None,1189.565054178238,1189.9267501831055,1189.565054178238,1189.9267501831055,1188.5355820655823,None,1188.5355820655823,None,1188.5355820655823,None,-1,-1,1,3,305.7751655578613,444.6220397949219,left,1191.1706910133362,None,kyveli_pilot,icub,clamp,2021_Dec_17_1153,exp,2021.2.3,59.99988555930031,
left,go,3,0,3,0,1,3,9,0,1191.7030301094055,None,1,0.44259119033813477,1191.7030301094055,None,1192.247281074524,None,1193.2754299640656,1193.6312680244446,1193.2754299640656,1193.6312680244446,1192.247281074524,None,1192.247281074524,None,1192.247281074524,None,-1,-1,1,3,331.91967010498047,523.639440536499,left,1194.9765410423279,None,kyveli_pilot,icub,clamp,2021_Dec_17_1153,exp,2021.2.3,59.99988555930031,
