Holder,Action,blocks.thisRepN,blocks.thisTrialN,blocks.thisN,blocks.thisIndex,trials.thisRepN,trials.thisTrialN,trials.thisN,trials.thisIndex,start_msg.started,start_msg.stopped,RespButton_start_trial.keys,RespButton_start_trial.rt,RespButton_start_trial.started,RespButton_start_trial.stopped,GREEN.started,GREEN.stopped,LEFT_RED.started,LEFT_RED.stopped,RIGHT_RED.started,RIGHT_RED.stopped,LEFT_CIRCLE.started,LEFT_CIRCLE.stopped,CENTER_CIRCLE.started,CENTER_CIRCLE.stopped,RIGHT_CIRCLE.started,RIGHT_CIRCLE.stopped,CORRECT,VALIDITY,RELEASE_TIME,TOUCH_TIME,BOTTLE_RESPONSE_POSITION,text.started,text.stopped,SOUND_DELAY_MS_LEFT,SOUND_DELAY_MS_RIGHT,pid,left_position,right_position,date,expName,psychopyVersion,frameRate,
left,go,0,0,0,0,0,0,0,1,51.76742911338806,None,1,1.2997870445251465,51.76742911338806,None,53.17390012741089,None,None,None,None,None,53.17390012741089,None,53.17390012741089,None,53.17390012741089,None,0,3,-1.0,-1.0,-1,53.36557602882385,None,,,Uma_pilot,icub,clamp,2021_Dec_17_1503,exp,2021.2.3,59.963515545922945,
right,stop,0,0,0,0,0,1,1,5,53.897301197052,None,1,0.4904329776763916,53.897301197052,None,54.50973200798035,None,55.487231969833374,55.84019207954407,55.487231969833374,55.84019207954407,54.50973200798035,None,54.50973200798035,None,54.50973200798035,None,0,3,330.8522701263428,540.3709411621094,right,57.244699001312256,None,500,500,Uma_pilot,icub,clamp,2021_Dec_17_1503,exp,2021.2.3,59.963515545922945,
right,stop,0,0,0,0,0,2,2,5,57.75593900680542,None,1,0.39647793769836426,57.75593900680542,None,58.23779511451721,None,59.23397517204285,59.59388518333435,59.23397517204285,59.59388518333435,58.23779511451721,None,58.23779511451721,None,58.23779511451721,None,0,3,255.42306900024414,514.7924423217773,right,60.882023096084595,None,500,450,Uma_pilot,icub,clamp,2021_Dec_17_1503,exp,2021.2.3,59.963515545922945,
right,go,0,0,0,0,0,3,3,4,61.38903212547302,None,1,0.3343830108642578,61.38903212547302,None,61.8089439868927,None,62.82613015174866,63.1779510974884,62.82613015174866,63.1779510974884,61.8089439868927,None,61.8089439868927,None,61.8089439868927,None,1,3,279.83760833740234,540.8675670623779,right,64.52541208267212,None,-1,-1,Uma_pilot,icub,clamp,2021_Dec_17_1503,exp,2021.2.3,59.963515545922945,
left,go,0,0,0,0,0,4,4,0,65.0285279750824,None,1,0.33725500106811523,65.0285279750824,None,65.48787808418274,None,66.50548911094666,66.86554503440857,66.50548911094666,66.86554503440857,65.48787808418274,None,65.48787808418274,None,65.48787808418274,None,0,3,3000.247001647949,-1.0,-1,70.39481902122498,None,,,Uma_pilot,icub,clamp,2021_Dec_17_1503,exp,2021.2.3,59.963515545922945,
left,stop,0,0,0,0,0,5,5,2,70.89153218269348,None,1,0.7261369228363037,70.89153218269348,None,71.75072908401489,None,72.75518107414246,73.10989809036255,72.75518107414246,73.10989809036255,71.75072908401489,None,71.75072908401489,None,71.75072908401489,None,0,3,150.90608596801758,581.9344520568848,left,74.36522102355957,None,500,400,Uma_pilot,icub,clamp,2021_Dec_17_1503,exp,2021.2.3,59.963515545922945,
right,go,0,0,0,0,1,0,6,4,74.8764100074768,None,1,0.5897808074951172,74.8764100074768,None,75.5415050983429,None,76.55134010314941,76.89888000488281,76.55134010314941,76.89888000488281,75.5415050983429,None,75.5415050983429,None,75.5415050983429,None,1,3,296.3554859161377,554.621696472168,right,78.28658509254456,None,-1,-1,Uma_pilot,icub,clamp,2021_Dec_17_1503,exp,2021.2.3,59.963515545922945,
right,go,0,0,0,0,1,1,7,4,78.80694699287415,None,1,0.6861658096313477,78.80694699287415,None,79.59993100166321,None,80.62185096740723,80.97811007499695,80.62185096740723,80.97811007499695,79.59993100166321,None,79.59993100166321,None,79.59993100166321,None,1,3,332.0004940032959,730.1280498504639,right,82.56054306030273,None,-1,-1,Uma_pilot,icub,clamp,2021_Dec_17_1503,exp,2021.2.3,59.963515545922945,
left,go,0,0,0,0,1,2,8,1,83.0771861076355,None,1,0.5124111175537109,83.0771861076355,None,83.67951607704163,None,84.67624497413635,85.03067207336426,84.67624497413635,85.03067207336426,83.67951607704163,None,83.67951607704163,None,83.67951607704163,None,1,3,574.3272304534912,833.8661193847656,left,86.97418403625488,None,-1,-1,Uma_pilot,icub,clamp,2021_Dec_17_1503,exp,2021.2.3,59.963515545922945,
right,stop,0,0,0,0,1,3,9,5,87.48127818107605,None,1,0.42691802978515625,87.48127818107605,None,88.0225989818573,None,89.01575803756714,89.36309313774109,89.01575803756714,89.36309313774109,88.0225989818573,None,88.0225989818573,None,88.0225989818573,None,0,3,191.24770164489746,547.1706390380859,right,90.67475414276123,None,450,400,Uma_pilot,icub,clamp,2021_Dec_17_1503,exp,2021.2.3,59.963515545922945,
left,go,0,0,0,0,1,4,10,0,91.19528913497925,None,1,0.6130411624908447,91.19528913497925,None,91.90375399589539,None,92.91903710365295,93.27618598937988,92.91903710365295,93.27618598937988,91.90375399589539,None,91.90375399589539,None,91.90375399589539,None,1,3,221.62508964538574,485.7485294342041,left,94.4929130077362,None,-1,-1,Uma_pilot,icub,clamp,2021_Dec_17_1503,exp,2021.2.3,59.963515545922945,
right,stop,0,0,0,0,1,5,11,5,95.01173520088196,None,1,0.3514890670776367,95.01173520088196,None,95.48745918273926,None,96.49799299240112,96.86255717277527,96.49799299240112,96.86255717277527,95.48745918273926,None,95.48745918273926,None,95.48745918273926,None,1,3,1601.3939380645752,-1.0,-1,101.99619817733765,None,450,350,Uma_pilot,icub,clamp,2021_Dec_17_1503,exp,2021.2.3,59.963515545922945,
right,stop,0,0,0,0,2,0,12,5,102.527104139328,None,1,0.49650001525878906,102.527104139328,None,103.14015197753906,None,104.12581610679626,104.49118518829346,104.12581610679626,104.49118518829346,103.14015197753906,None,103.14015197753906,None,103.14015197753906,None,1,3,726.478099822998,-1.0,-1,108.74999403953552,None,450,400,Uma_pilot,icub,clamp,2021_Dec_17_1503,exp,2021.2.3,59.963515545922945,
left,go,0,0,0,0,2,1,13,1,109.28099298477173,None,1,1.5066518783569336,109.28099298477173,None,110.88020420074463,None,111.86085915565491,112.21958899497986,111.86085915565491,112.21958899497986,110.88020420074463,None,110.88020420074463,None,110.88020420074463,None,1,3,82.34906196594238,712.4526500701904,left,113.5663001537323,None,-1,-1,Uma_pilot,icub,clamp,2021_Dec_17_1503,exp,2021.2.3,59.963515545922945,
right,go,0,0,0,0,2,2,14,4,114.07492208480835,None,1,0.5273330211639404,114.07492208480835,None,114.67785000801086,None,115.67406511306763,116.02163910865784,115.67406511306763,116.02163910865784,114.67785000801086,None,114.67785000801086,None,114.67785000801086,None,1,3,378.2064914703369,790.7009124755859,right,117.71651411056519,None,-1,-1,Uma_pilot,icub,clamp,2021_Dec_17_1503,exp,2021.2.3,59.963515545922945,
left,stop,0,0,0,0,2,3,15,2,118.2368631362915,None,1,0.3401200771331787,118.2368631362915,None,118.65763998031616,None,119.65451908111572,120.01500296592712,119.65451908111572,120.01500296592712,118.65763998031616,None,118.65763998031616,None,118.65763998031616,None,1,3,677.0904064178467,-1.0,-1,124.21669507026672,None,450,450,Uma_pilot,icub,clamp,2021_Dec_17_1503,exp,2021.2.3,59.963515545922945,
left,go,0,0,0,0,2,4,16,1,124.74796319007874,None,1,0.4455139636993408,124.74796319007874,None,125.29829502105713,None,126.2820360660553,126.65009903907776,126.2820360660553,126.65009903907776,125.29829502105713,None,125.29829502105713,None,125.29829502105713,None,1,3,292.29140281677246,697.8192329406738,left,128.16868805885315,None,-1,-1,Uma_pilot,icub,clamp,2021_Dec_17_1503,exp,2021.2.3,59.963515545922945,
right,stop,0,0,0,0,2,5,17,5,128.66945004463196,None,1,0.594343900680542,128.66945004463196,None,129.33908605575562,None,130.32946801185608,130.6749610900879,130.32946801185608,130.6749610900879,129.33908605575562,None,129.33908605575562,None,129.33908605575562,None,0,3,293.28417778015137,551.4280796051025,right,132.08580017089844,None,500,450,Uma_pilot,icub,clamp,2021_Dec_17_1503,exp,2021.2.3,59.963515545922945,
left,go,0,0,0,0,3,0,18,0,132.5918390750885,None,1,0.42000603675842285,132.5918390750885,None,133.131520986557,None,134.14561009407043,134.51110219955444,134.14561009407043,134.51110219955444,133.131520986557,None,133.131520986557,None,133.131520986557,None,1,3,384.9449157714844,480.2989959716797,left,135.9033420085907,None,-1,-1,Uma_pilot,icub,clamp,2021_Dec_17_1503,exp,2021.2.3,59.963515545922945,
right,go,0,0,0,0,3,1,19,3,136.41996097564697,None,1,0.3532218933105469,136.41996097564697,None,136.90162706375122,None,137.9023060798645,138.27088809013367,137.9023060798645,138.27088809013367,136.90162706375122,None,136.90162706375122,None,136.90162706375122,None,1,3,527.172327041626,481.13560676574707,right,139.7924280166626,None,-1,-1,Uma_pilot,icub,clamp,2021_Dec_17_1503,exp,2021.2.3,59.963515545922945,
right,go,0,0,0,0,3,2,20,3,140.2957091331482,None,1,0.44714903831481934,140.2957091331482,None,140.8372139930725,None,141.8489990234375,142.2059199810028,141.8489990234375,142.2059199810028,140.8372139930725,None,140.8372139930725,None,140.8372139930725,None,1,3,226.3927459716797,440.28282165527344,right,143.4066321849823,None,-1,-1,Uma_pilot,icub,clamp,2021_Dec_17_1503,exp,2021.2.3,59.963515545922945,
left,go,0,0,0,0,3,3,21,1,143.92036318778992,None,1,0.425555944442749,143.92036318778992,None,144.45938897132874,None,145.4954390525818,145.8535439968109,145.4954390525818,145.8535439968109,144.45938897132874,None,144.45938897132874,None,144.45938897132874,None,0,3,-1.0,-1.0,-1,146.29569816589355,None,,,Uma_pilot,icub,clamp,2021_Dec_17_1503,exp,2021.2.3,59.963515545922945,
right,go,0,0,0,0,3,4,22,3,146.78911519050598,None,1,0.7306709289550781,146.78911519050598,None,147.63051509857178,None,148.6287031173706,148.97541117668152,148.6287031173706,148.97541117668152,147.63051509857178,None,147.63051509857178,None,147.63051509857178,None,1,3,494.9452877044678,487.4129295349121,right,150.52247309684753,None,-1,-1,Uma_pilot,icub,clamp,2021_Dec_17_1503,exp,2021.2.3,59.963515545922945,
left,stop,0,0,0,0,3,5,23,2,151.02698612213135,None,1,0.3506481647491455,151.02698612213135,None,151.50635313987732,None,152.49898505210876,152.85530614852905,152.49898505210876,152.85530614852905,151.50635313987732,None,151.50635313987732,None,151.50635313987732,None,0,3,482.435941696167,476.1974811553955,left,154.3415470123291,None,500,400,Uma_pilot,icub,clamp,2021_Dec_17_1503,exp,2021.2.3,59.963515545922945,
right,stop,0,0,0,0,4,0,24,5,154.86796402931213,None,1,0.6639471054077148,154.86796402931213,None,155.65512108802795,None,156.64826607704163,157.00692200660706,156.64826607704163,157.00692200660706,155.65512108802795,None,155.65512108802795,None,155.65512108802795,None,0,3,408.62298011779785,415.755033493042,right,158.3643021583557,None,450,400,Uma_pilot,icub,clamp,2021_Dec_17_1503,exp,2021.2.3,59.963515545922945,
left,stop,0,0,0,0,4,1,25,2,158.89292097091675,None,1,0.568979024887085,158.89292097091675,None,159.56296610832214,None,160.57855606079102,160.9176561832428,160.57855606079102,160.9176561832428,159.56296610832214,None,159.56296610832214,None,159.56296610832214,None,0,3,273.3027935028076,543.114185333252,left,162.25830101966858,None,450,350,Uma_pilot,icub,clamp,2021_Dec_17_1503,exp,2021.2.3,59.963515545922945,
left,stop,0,0,0,0,4,2,26,2,162.76916813850403,None,1,0.36164093017578125,162.76916813850403,None,163.2504689693451,None,164.2449860572815,164.601576089859,164.2449860572815,164.601576089859,163.2504689693451,None,163.2504689693451,None,163.2504689693451,None,0,3,388.9453411102295,527.7571678161621,left,166.04713916778564,None,400,350,Uma_pilot,icub,clamp,2021_Dec_17_1503,exp,2021.2.3,59.963515545922945,
right,go,0,0,0,0,4,3,27,4,166.56638598442078,None,1,0.3592658042907715,166.56638598442078,None,167.04347205162048,None,168.0469160079956,168.39857602119446,168.0469160079956,168.39857602119446,167.04347205162048,None,167.04347205162048,None,167.04347205162048,None,1,3,293.90835762023926,457.09967613220215,right,169.6721270084381,None,-1,-1,Uma_pilot,icub,clamp,2021_Dec_17_1503,exp,2021.2.3,59.963515545922945,
right,stop,0,0,0,0,4,4,28,5,170.18952703475952,None,1,0.3351449966430664,170.18952703475952,None,170.61015796661377,None,171.63252711296082,171.97728610038757,171.63252711296082,171.97728610038757,170.61015796661377,None,170.61015796661377,None,170.61015796661377,None,0,3,387.2833251953125,495.0602054595947,right,173.4028251171112,None,350,350,Uma_pilot,icub,clamp,2021_Dec_17_1503,exp,2021.2.3,59.963515545922945,
right,go,0,0,0,0,4,5,29,3,173.9120650291443,None,1,0.6416089534759521,173.9120650291443,None,174.63937401771545,None,175.64968609809875,176.00096011161804,175.64968609809875,176.00096011161804,174.63937401771545,None,174.63937401771545,None,174.63937401771545,None,1,3,490.2336597442627,577.9097080230713,right,177.59955310821533,None,-1,-1,Uma_pilot,icub,clamp,2021_Dec_17_1503,exp,2021.2.3,59.963515545922945,
left,go,0,0,0,0,5,0,30,1,178.11525011062622,None,1,0.3505098819732666,178.11525011062622,None,178.57983016967773,None,179.58327412605286,179.94441318511963,179.58327412605286,179.94441318511963,178.57983016967773,None,178.57983016967773,None,178.57983016967773,None,1,3,391.7393684387207,546.5025901794434,left,181.4014081954956,None,-1,-1,Uma_pilot,icub,clamp,2021_Dec_17_1503,exp,2021.2.3,59.963515545922945,
left,stop,0,0,0,0,5,1,31,2,181.9083170890808,None,1,0.3625218868255615,181.9083170890808,None,182.3900830745697,None,183.39430618286133,183.74413013458252,183.39430618286133,183.74413013458252,182.3900830745697,None,182.3900830745697,None,182.3900830745697,None,0,3,515.1045322418213,884.7975730895996,left,185.70227003097534,None,350,300,Uma_pilot,icub,clamp,2021_Dec_17_1503,exp,2021.2.3,59.963515545922945,
right,stop,0,0,0,0,5,2,32,5,186.20529103279114,None,1,0.6245768070220947,186.20529103279114,None,186.9361732006073,None,187.95153212547302,188.31906819343567,187.95153212547302,188.31906819343567,186.9361732006073,None,186.9361732006073,None,186.9361732006073,None,1,3,1058.1848621368408,-1.0,-1,192.89899015426636,None,300,300,Uma_pilot,icub,clamp,2021_Dec_17_1503,exp,2021.2.3,59.963515545922945,
right,stop,0,0,0,0,5,3,33,5,193.39266800880432,None,1,0.11859703063964844,193.39266800880432,None,193.6332859992981,None,194.62827610969543,194.98719811439514,194.62827610969543,194.98719811439514,193.6332859992981,None,193.6332859992981,None,193.6332859992981,None,1,3,519.0355777740479,-1.0,-1,199.0373179912567,None,300,350,Uma_pilot,icub,clamp,2021_Dec_17_1503,exp,2021.2.3,59.963515545922945,
right,go,0,0,0,0,5,4,34,4,199.56832098960876,None,1,0.35486578941345215,199.56832098960876,None,200.0568540096283,None,201.02810502052307,201.3809621334076,201.02810502052307,201.3809621334076,200.0568540096283,None,200.0568540096283,None,200.0568540096283,None,1,3,533.374547958374,706.507682800293,right,203.1904981136322,None,-1,-1,Uma_pilot,icub,clamp,2021_Dec_17_1503,exp,2021.2.3,59.963515545922945,
right,go,0,0,0,0,5,5,35,4,203.69076204299927,None,1,0.3759191036224365,203.69076204299927,None,204.17366909980774,None,205.1748661994934,205.53040599822998,205.1748661994934,205.53040599822998,204.17366909980774,None,204.17366909980774,None,204.17366909980774,None,1,3,580.2099704742432,571.9213485717773,right,207.2005500793457,None,-1,-1,Uma_pilot,icub,clamp,2021_Dec_17_1503,exp,2021.2.3,59.963515545922945,
left,go,0,0,0,0,6,0,36,1,207.71840500831604,None,1,0.25948190689086914,207.71840500831604,None,208.07261419296265,None,209.06444001197815,209.4229211807251,209.06444001197815,209.4229211807251,208.07261419296265,None,208.07261419296265,None,208.07261419296265,None,1,3,767.1644687652588,724.2405414581299,left,211.44424700737,None,-1,-1,Uma_pilot,icub,clamp,2021_Dec_17_1503,exp,2021.2.3,59.963515545922945,
left,go,0,0,0,0,6,1,37,1,211.9579050540924,None,1,0.2979588508605957,211.9579050540924,None,212.37533903121948,None,213.3760221004486,213.72487497329712,213.3760221004486,213.72487497329712,212.37533903121948,None,212.37533903121948,None,212.37533903121948,None,1,3,733.8998317718506,750.9243488311768,left,215.74068808555603,None,-1,-1,Uma_pilot,icub,clamp,2021_Dec_17_1503,exp,2021.2.3,59.963515545922945,
right,go,0,0,0,0,6,2,38,3,216.25685811042786,None,1,0.35607004165649414,216.25685811042786,None,216.73682713508606,None,217.76600408554077,218.11872100830078,217.76600408554077,218.11872100830078,216.73682713508606,None,216.73682713508606,None,216.73682713508606,None,1,3,640.2418613433838,652.2316932678223,right,219.93725299835205,None,-1,-1,Uma_pilot,icub,clamp,2021_Dec_17_1503,exp,2021.2.3,59.963515545922945,
right,go,0,0,0,0,6,3,39,4,220.4418981075287,None,1,0.47350406646728516,220.4418981075287,None,221.0436191558838,None,222.03997707366943,222.39703512191772,222.03997707366943,222.39703512191772,221.0436191558838,None,221.0436191558838,None,221.0436191558838,None,1,3,405.1661491394043,431.08177185058594,right,223.75512218475342,None,-1,-1,Uma_pilot,icub,clamp,2021_Dec_17_1503,exp,2021.2.3,59.963515545922945,
left,stop,0,0,0,0,6,4,40,2,224.29164814949036,None,1,0.4501039981842041,224.29164814949036,None,224.83235001564026,None,225.8594310283661,226.2117440700531,225.8594310283661,226.2117440700531,224.83235001564026,None,224.83235001564026,None,224.83235001564026,None,1,3,467.79918670654297,-1.0,-1,230.1988890171051,None,300,400,Uma_pilot,icub,clamp,2021_Dec_17_1503,exp,2021.2.3,59.963515545922945,
right,stop,0,0,0,0,6,5,41,5,230.73004007339478,None,1,0.4171140193939209,230.73004007339478,None,231.28023505210876,None,232.26107215881348,232.60561203956604,232.26107215881348,232.60561203956604,231.28023505210876,None,231.28023505210876,None,231.28023505210876,None,1,3,349.95365142822266,-1.0,-1,236.5306580066681,None,350,400,Uma_pilot,icub,clamp,2021_Dec_17_1503,exp,2021.2.3,59.963515545922945,
right,go,0,0,0,0,7,0,42,3,237.06426310539246,None,1,0.4560060501098633,237.06426310539246,None,237.61368918418884,None,238.62005519866943,238.9683220386505,238.62005519866943,238.9683220386505,237.61368918418884,None,237.61368918418884,None,237.61368918418884,None,1,3,351.3820171356201,499.161958694458,right,240.33287501335144,None,-1,-1,Uma_pilot,icub,clamp,2021_Dec_17_1503,exp,2021.2.3,59.963515545922945,
left,go,0,0,0,0,7,1,43,0,240.85165810585022,None,1,0.46022987365722656,240.85165810585022,None,241.44045996665955,None,242.46280217170715,242.8110740184784,242.46280217170715,242.8110740184784,241.44045996665955,None,241.44045996665955,None,241.44045996665955,None,1,3,193.31669807434082,559.6864223480225,left,244.07011008262634,None,-1,-1,Uma_pilot,icub,clamp,2021_Dec_17_1503,exp,2021.2.3,59.963515545922945,
right,go,0,0,0,0,7,2,44,3,244.6000781059265,None,1,0.43158698081970215,244.6000781059265,None,245.13972210884094,None,246.1688141822815,246.51258301734924,246.1688141822815,246.51258301734924,245.13972210884094,None,245.13972210884094,None,245.13972210884094,None,1,3,585.9649181365967,625.1213550567627,right,248.2434949874878,None,-1,-1,Uma_pilot,icub,clamp,2021_Dec_17_1503,exp,2021.2.3,59.963515545922945,
left,go,0,0,0,0,7,3,45,1,248.77705097198486,None,1,0.31658291816711426,248.77705097198486,None,249.19439816474915,None,250.21768999099731,250.56748414039612,250.21768999099731,250.56748414039612,249.19439816474915,None,249.19439816474915,None,249.19439816474915,None,1,3,589.9052619934082,866.2862777709961,left,252.54557514190674,None,-1,-1,Uma_pilot,icub,clamp,2021_Dec_17_1503,exp,2021.2.3,59.963515545922945,
right,go,0,0,0,0,7,4,46,3,253.0619740486145,None,1,0.49462008476257324,253.0619740486145,None,253.66629600524902,None,254.6626009941101,255.01412916183472,254.6626009941101,255.01412916183472,253.66629600524902,None,253.66629600524902,None,253.66629600524902,None,1,3,577.7008533477783,615.7419681549072,right,256.7362129688263,None,-1,-1,Uma_pilot,icub,clamp,2021_Dec_17_1503,exp,2021.2.3,59.963515545922945,
left,go,0,0,0,0,7,5,47,1,257.2535500526428,None,1,0.32799291610717773,257.2535500526428,None,257.67215514183044,None,258.6615481376648,259.0240161418915,258.6615481376648,259.0240161418915,257.67215514183044,None,257.67215514183044,None,257.67215514183044,None,1,3,470.949649810791,769.1380977630615,left,260.7882001399994,None,-1,-1,Uma_pilot,icub,clamp,2021_Dec_17_1503,exp,2021.2.3,59.963515545922945,
right,go,0,0,0,0,8,0,48,3,261.30807304382324,None,1,0.4094870090484619,261.30807304382324,None,261.8416039943695,None,262.8565261363983,263.2237780094147,262.8565261363983,263.2237780094147,261.8416039943695,None,261.8416039943695,None,261.8416039943695,None,1,3,732.3892116546631,577.3801803588867,right,265.0265471935272,None,-1,-1,Uma_pilot,icub,clamp,2021_Dec_17_1503,exp,2021.2.3,59.963515545922945,
left,stop,0,0,0,0,8,1,49,2,265.5307261943817,None,1,0.6189169883728027,265.5307261943817,None,266.25147819519043,None,267.26827096939087,267.618026971817,267.26827096939087,267.618026971817,266.25147819519043,None,266.25147819519043,None,266.25147819519043,None,1,3,661.1001491546631,-1.0,-1,271.81392216682434,None,350,450,Uma_pilot,icub,clamp,2021_Dec_17_1503,exp,2021.2.3,59.963515545922945,
left,go,0,0,0,0,8,2,50,0,272.34629011154175,None,1,0.4866459369659424,272.34629011154175,None,272.9577741622925,None,273.94336009025574,274.2921690940857,273.94336009025574,274.2921690940857,272.9577741622925,None,272.9577741622925,None,272.9577741622925,None,1,3,241.44482612609863,502.5308132171631,left,275.6000130176544,None,-1,-1,Uma_pilot,icub,clamp,2021_Dec_17_1503,exp,2021.2.3,59.963515545922945,
left,go,0,0,0,0,8,3,51,0,276.1043620109558,None,1,0.40119504928588867,276.1043620109558,None,276.58630204200745,None,277.5788381099701,277.92515206336975,277.5788381099701,277.92515206336975,276.58630204200745,None,276.58630204200745,None,276.58630204200745,None,1,3,246.74725532531738,468.5530662536621,left,279.2016689777374,None,-1,-1,Uma_pilot,icub,clamp,2021_Dec_17_1503,exp,2021.2.3,59.963515545922945,
right,go,0,0,0,0,8,4,52,3,279.71095609664917,None,1,0.3855440616607666,279.71095609664917,None,280.1918921470642,None,281.2137260437012,281.56048607826233,281.2137260437012,281.56048607826233,280.1918921470642,None,280.1918921470642,None,280.1918921470642,None,1,3,265.8374309539795,540.3070449829102,right,282.8981280326843,None,-1,-1,Uma_pilot,icub,clamp,2021_Dec_17_1503,exp,2021.2.3,59.963515545922945,
left,go,0,0,0,0,8,5,53,0,283.41527915000916,None,1,0.4690721035003662,283.41527915000916,None,283.95992708206177,None,284.9562520980835,285.29666900634766,284.9562520980835,285.29666900634766,283.95992708206177,None,283.95992708206177,None,283.95992708206177,None,1,3,758.427619934082,1427.7925491333008,left,288.0165071487427,None,-1,-1,Uma_pilot,icub,clamp,2021_Dec_17_1503,exp,2021.2.3,59.963515545922945,
right,go,0,0,0,0,9,0,54,3,288.5329170227051,None,1,0.4085078239440918,288.5329170227051,None,289.01701498031616,None,290.0127520561218,290.35922598838806,290.0127520561218,290.35922598838806,289.01701498031616,None,289.01701498031616,None,289.01701498031616,None,1,3,44.61216926574707,530.7972431182861,right,291.4953770637512,None,-1,-1,Uma_pilot,icub,clamp,2021_Dec_17_1503,exp,2021.2.3,59.963515545922945,
left,go,0,0,0,0,9,1,55,1,292.0040581226349,None,1,0.48928403854370117,292.0040581226349,None,292.6074001789093,None,293.6197130680084,293.9731819629669,293.6197130680084,293.9731819629669,292.6074001789093,None,292.6074001789093,None,292.6074001789093,None,1,3,359.84063148498535,597.0296859741211,left,295.45981097221375,None,-1,-1,Uma_pilot,icub,clamp,2021_Dec_17_1503,exp,2021.2.3,59.963515545922945,
left,go,0,0,0,0,9,2,56,0,295.9759681224823,None,1,0.48560500144958496,295.9759681224823,None,296.57737612724304,None,297.5935320854187,297.9488730430603,297.5935320854187,297.9488730430603,296.57737612724304,None,296.57737612724304,None,296.57737612724304,None,0,3,3000.87308883667,-1.0,-1,301.4840099811554,None,,,Uma_pilot,icub,clamp,2021_Dec_17_1503,exp,2021.2.3,59.963515545922945,
left,go,0,0,0,0,9,3,57,0,301.97704315185547,None,1,0.5522520542144775,301.97704315185547,None,302.6406161785126,None,303.6348750591278,303.98997497558594,303.6348750591278,303.98997497558594,302.6406161785126,None,302.6406161785126,None,302.6406161785126,None,1,3,436.5372657775879,695.1150894165039,left,305.65512108802795,None,-1,-1,Uma_pilot,icub,clamp,2021_Dec_17_1503,exp,2021.2.3,59.963515545922945,
left,stop,0,0,0,0,9,4,58,2,306.16624903678894,None,1,0.4593958854675293,306.16624903678894,None,306.7093839645386,None,307.7401080131531,308.09134817123413,307.7401080131531,308.09134817123413,306.7093839645386,None,306.7093839645386,None,306.7093839645386,None,1,3,358.691930770874,-1.0,-1,311.93888306617737,None,400,450,Uma_pilot,icub,clamp,2021_Dec_17_1503,exp,2021.2.3,59.963515545922945,
right,stop,0,0,0,0,9,5,59,5,312.46966218948364,None,1,0.44217991828918457,312.46966218948364,None,313.02004504203796,None,313.9930009841919,314.35359716415405,313.9930009841919,314.35359716415405,313.02004504203796,None,313.02004504203796,None,313.02004504203796,None,0,3,492.1419620513916,637.0811462402344,right,316.0479371547699,None,450,450,Uma_pilot,icub,clamp,2021_Dec_17_1503,exp,2021.2.3,59.963515545922945,
left,stop,0,0,0,0,10,0,60,2,316.56772017478943,None,1,0.7171049118041992,316.56772017478943,None,317.37301206588745,None,318.36586809158325,318.73647809028625,318.36586809158325,318.73647809028625,317.37301206588745,None,317.37301206588745,None,317.37301206588745,None,1,3,399.86228942871094,-1.0,-1,322.676176071167,None,450,400,Uma_pilot,icub,clamp,2021_Dec_17_1503,exp,2021.2.3,59.963515545922945,
right,go,0,0,0,0,10,1,61,4,323.17041397094727,None,1,0.6463508605957031,323.17041397094727,None,323.9076020717621,None,324.8877921104431,325.22725796699524,324.8877921104431,325.22725796699524,323.9076020717621,None,323.9076020717621,None,323.9076020717621,None,1,3,469.70605850219727,522.5176811218262,right,326.79824018478394,None,-1,-1,Uma_pilot,icub,clamp,2021_Dec_17_1503,exp,2021.2.3,59.963515545922945,
left,go,0,0,0,0,10,2,62,1,327.3011510372162,None,1,0.5104658603668213,327.3011510372162,None,327.90700507164,None,328.9081599712372,329.2742280960083,328.9081599712372,329.2742280960083,327.90700507164,None,327.90700507164,None,327.90700507164,None,1,3,379.5781135559082,940.532922744751,left,331.1227900981903,None,-1,-1,Uma_pilot,icub,clamp,2021_Dec_17_1503,exp,2021.2.3,59.963515545922945,
left,stop,0,0,0,0,10,3,63,2,331.6351101398468,None,1,0.7581331729888916,331.6351101398468,None,332.4891700744629,None,333.5214500427246,333.84252405166626,333.5214500427246,333.84252405166626,332.4891700744629,None,332.4891700744629,None,332.4891700744629,None,0,3,194.94152069091797,706.3648700714111,left,335.28993701934814,None,500,400,Uma_pilot,icub,clamp,2021_Dec_17_1503,exp,2021.2.3,59.963515545922945,
left,go,0,0,0,0,10,4,64,0,335.80426812171936,None,1,0.7239739894866943,335.80426812171936,None,336.6559491157532,None,337.6883451938629,338.03854608535767,337.6883451938629,338.03854608535767,336.6559491157532,None,336.6559491157532,None,336.6559491157532,None,1,3,307.50083923339844,637.04514503479,left,339.49300599098206,None,-1,-1,Uma_pilot,icub,clamp,2021_Dec_17_1503,exp,2021.2.3,59.963515545922945,
right,go,0,0,0,0,10,5,65,4,340.0073230266571,None,1,0.5138759613037109,340.0073230266571,None,340.6124620437622,None,341.6390199661255,342.0023190975189,341.6390199661255,342.0023190975189,340.6124620437622,None,340.6124620437622,None,340.6124620437622,None,1,3,394.38343048095703,741.9970035552979,right,343.6220049858093,None,-1,-1,Uma_pilot,icub,clamp,2021_Dec_17_1503,exp,2021.2.3,59.963515545922945,
left,stop,0,0,0,0,11,0,66,2,344.15406608581543,None,1,0.5381550788879395,344.15406608581543,None,344.8182301521301,None,345.85038900375366,346.2195191383362,345.85038900375366,346.2195191383362,344.8182301521301,None,344.8182301521301,None,344.8182301521301,None,1,3,256.29258155822754,-1.0,-1,349.96460604667664,None,450,400,Uma_pilot,icub,clamp,2021_Dec_17_1503,exp,2021.2.3,59.963515545922945,
left,stop,0,0,0,0,11,1,67,2,350.4964590072632,None,1,0.17724394798278809,350.4964590072632,None,350.79921102523804,None,351.78304719924927,352.1334581375122,351.78304719924927,352.1334581375122,350.79921102523804,None,350.79921102523804,None,350.79921102523804,None,0,3,363.06262016296387,670.8991527557373,left,353.70463514328003,None,500,400,Uma_pilot,icub,clamp,2021_Dec_17_1503,exp,2021.2.3,59.963515545922945,
right,go,0,0,0,0,11,2,68,4,354.20693016052246,None,1,0.7183549404144287,354.20693016052246,None,355.0528931617737,None,356.05412197113037,356.3993570804596,356.05412197113037,356.3993570804596,355.0528931617737,None,355.0528931617737,None,355.0528931617737,None,1,3,579.3488025665283,696.9423294067383,right,358.2095580101013,None,-1,-1,Uma_pilot,icub,clamp,2021_Dec_17_1503,exp,2021.2.3,59.963515545922945,
right,go,0,0,0,0,11,3,69,3,358.7264940738678,None,1,0.7146129608154297,358.7264940738678,None,359.57412910461426,None,360.5953311920166,360.91871905326843,360.5953311920166,360.91871905326843,359.57412910461426,None,359.57412910461426,None,359.57412910461426,None,1,3,350.24142265319824,654.505729675293,right,362.48961114883423,None,-1,-1,Uma_pilot,icub,clamp,2021_Dec_17_1503,exp,2021.2.3,59.963515545922945,
left,go,0,0,0,0,11,4,70,0,362.99542212486267,None,1,0.7396469116210938,362.99542212486267,None,363.85008001327515,None,364.8604040145874,365.21945214271545,364.8604040145874,365.21945214271545,363.85008001327515,None,363.85008001327515,None,363.85008001327515,None,1,3,277.7986526489258,895.6875801086426,left,366.92580103874207,None,-1,-1,Uma_pilot,icub,clamp,2021_Dec_17_1503,exp,2021.2.3,59.963515545922945,
right,go,0,0,0,0,11,5,71,4,367.46076107025146,None,1,0.5191199779510498,367.46076107025146,None,368.06522703170776,None,369.0690350532532,369.43323397636414,369.0690350532532,369.43323397636414,368.06522703170776,None,368.06522703170776,None,368.06522703170776,None,1,3,386.9905471801758,732.3269844055176,right,371.0755310058594,None,-1,-1,Uma_pilot,icub,clamp,2021_Dec_17_1503,exp,2021.2.3,59.963515545922945,
right,go,0,0,0,0,12,0,72,4,371.5788311958313,None,1,0.42513203620910645,371.5788311958313,None,372.11956810951233,None,373.130490064621,373.4824261665344,373.130490064621,373.4824261665344,372.11956810951233,None,372.11956810951233,None,372.11956810951233,None,1,3,529.1297435760498,1377.7968883514404,right,375.9140989780426,None,-1,-1,Uma_pilot,icub,clamp,2021_Dec_17_1503,exp,2021.2.3,59.963515545922945,
right,go,0,0,0,0,12,1,73,3,376.4240131378174,None,1,0.5413899421691895,376.4240131378174,None,377.08798003196716,None,378.09453797340393,378.4465231895447,378.09453797340393,378.4465231895447,377.08798003196716,None,377.08798003196716,None,377.08798003196716,None,1,3,476.81212425231934,635.4601383209229,right,380.08750009536743,None,-1,-1,Uma_pilot,icub,clamp,2021_Dec_17_1503,exp,2021.2.3,59.963515545922945,
left,go,0,0,0,0,12,2,74,0,380.6009180545807,None,1,0.6043732166290283,380.6009180545807,None,381.32305216789246,None,382.3297851085663,382.6811270713806,382.3297851085663,382.6811270713806,381.32305216789246,None,381.32305216789246,None,381.32305216789246,None,1,3,234.58099365234375,684.2319965362549,left,384.1340410709381,None,-1,-1,Uma_pilot,icub,clamp,2021_Dec_17_1503,exp,2021.2.3,59.963515545922945,
left,go,0,0,0,0,12,3,75,1,384.6674590110779,None,1,0.42046594619750977,384.6674590110779,None,385.20753502845764,None,386.2420551776886,386.5898001194,386.2420551776886,386.5898001194,385.20753502845764,None,385.20753502845764,None,385.20753502845764,None,1,3,800.2204895019531,1667.6080226898193,left,389.5793001651764,None,-1,-1,Uma_pilot,icub,clamp,2021_Dec_17_1503,exp,2021.2.3,59.963515545922945,
left,go,0,0,0,0,12,4,76,0,390.1097021102905,None,1,0.5302450656890869,390.1097021102905,None,390.7153971195221,None,391.7172601222992,392.051146030426,391.7172601222992,392.051146030426,390.7153971195221,None,390.7153971195221,None,390.7153971195221,None,1,3,155.29847145080566,622.9109764099121,left,393.38954997062683,None,-1,-1,Uma_pilot,icub,clamp,2021_Dec_17_1503,exp,2021.2.3,59.963515545922945,
right,stop,0,0,0,0,12,5,77,5,393.9061210155487,None,1,0.48392200469970703,393.9061210155487,None,394.50937700271606,None,395.51554918289185,395.8662271499634,395.51554918289185,395.8662271499634,394.50937700271606,None,394.50937700271606,None,394.50937700271606,None,1,3,222.72634506225586,-1.0,-1,399.6055340766907,None,450,400,Uma_pilot,icub,clamp,2021_Dec_17_1503,exp,2021.2.3,59.963515545922945,
left,stop,1,0,1,0,0,0,0,2,411.0698711872101,None,1,2.9279990196228027,411.0698711872101,None,414.0734601020813,None,415.09879899024963,415.4567391872406,415.09879899024963,415.4567391872406,414.0734601020813,None,414.0734601020813,None,414.0734601020813,None,0,3,381.44469261169434,507.46917724609375,left,416.845911026001,None,450,450,Uma_pilot,icub,clamp,2021_Dec_17_1503,exp,2021.2.3,59.963515545922945,
right,stop,1,0,1,0,0,1,1,5,417.3613991737366,None,1,0.47582316398620605,417.3613991737366,None,417.9610459804535,None,418.9716820716858,419.32495498657227,418.9716820716858,419.32495498657227,417.9610459804535,None,417.9610459804535,None,417.9610459804535,None,0,3,370.084285736084,489.56298828125,right,420.70563101768494,None,400,450,Uma_pilot,icub,clamp,2021_Dec_17_1503,exp,2021.2.3,59.963515545922945,
right,go,1,0,1,0,0,2,2,3,421.2190270423889,None,1,0.29122090339660645,421.2190270423889,None,421.6341950893402,None,422.63878417015076,422.99873208999634,422.63878417015076,422.99873208999634,421.6341950893402,None,421.6341950893402,None,421.6341950893402,None,1,3,789.7670269012451,604.2218208312988,right,424.93044114112854,None,-1,-1,Uma_pilot,icub,clamp,2021_Dec_17_1503,exp,2021.2.3,59.963515545922945,
right,stop,1,0,1,0,0,3,3,5,425.45349502563477,None,1,0.28438401222229004,425.45349502563477,None,425.81321001052856,None,426.8364419937134,427.19716906547546,426.8364419937134,427.19716906547546,425.81321001052856,None,425.81321001052856,None,425.81321001052856,None,1,3,561.5603923797607,-1.0,-1,431.25096917152405,None,400,400,Uma_pilot,icub,clamp,2021_Dec_17_1503,exp,2021.2.3,59.963515545922945,
left,go,1,0,1,0,0,4,4,1,431.78211402893066,None,1,3.4303808212280273,431.78211402893066,None,435.3107659816742,None,436.2875909805298,436.645663022995,436.2875909805298,436.645663022995,435.3107659816742,None,435.3107659816742,None,435.3107659816742,None,1,3,681.82373046875,647.4654674530029,left,438.50834012031555,None,-1,-1,Uma_pilot,icub,clamp,2021_Dec_17_1503,exp,2021.2.3,59.963515545922945,
left,go,1,0,1,0,0,5,5,1,439.02633810043335,None,1,0.3294529914855957,439.02633810043335,None,439.436252117157,None,440.4579219818115,440.80665016174316,440.4579219818115,440.80665016174316,439.436252117157,None,439.436252117157,None,439.436252117157,None,1,3,650.2366065979004,889.5072937011719,left,442.8624610900879,None,-1,-1,Uma_pilot,icub,clamp,2021_Dec_17_1503,exp,2021.2.3,59.963515545922945,
left,go,1,0,1,0,1,0,6,0,443.3770351409912,None,1,0.7269179821014404,443.3770351409912,None,444.2267551422119,None,445.23122906684875,445.58706402778625,445.23122906684875,445.58706402778625,444.2267551422119,None,444.2267551422119,None,444.2267551422119,None,1,3,396.53563499450684,503.7248134613037,left,447.0136640071869,None,-1,-1,Uma_pilot,icub,clamp,2021_Dec_17_1503,exp,2021.2.3,59.963515545922945,
left,go,1,0,1,0,1,1,7,1,447.53093814849854,None,1,0.42087793350219727,447.53093814849854,None,448.0754551887512,None,449.08785820007324,449.44827604293823,449.08785820007324,449.44827604293823,448.0754551887512,None,448.0754551887512,None,448.0754551887512,None,1,3,573.7764835357666,938.4486675262451,left,451.4846701622009,None,-1,-1,Uma_pilot,icub,clamp,2021_Dec_17_1503,exp,2021.2.3,59.963515545922945,
left,go,1,0,1,0,1,2,8,1,452.00302720069885,None,1,0.3626132011413574,452.00302720069885,None,452.4579060077667,None,453.4523010253906,453.8137900829315,453.4523010253906,453.8137900829315,452.4579060077667,None,452.4579060077667,None,452.4579060077667,None,1,3,270.7090377807617,642.4493789672852,left,455.24453020095825,None,-1,-1,Uma_pilot,icub,clamp,2021_Dec_17_1503,exp,2021.2.3,59.963515545922945,
left,go,1,0,1,0,1,3,9,0,455.7615830898285,None,1,0.605262041091919,455.7615830898285,None,456.4847800731659,None,457.4931859970093,457.84947204589844,457.4931859970093,457.84947204589844,456.4847800731659,None,456.4847800731659,None,456.4847800731659,None,1,3,259.4020366668701,508.2111358642578,left,459.1443030834198,None,-1,-1,Uma_pilot,icub,clamp,2021_Dec_17_1503,exp,2021.2.3,59.963515545922945,
right,stop,1,0,1,0,1,4,10,5,459.6806061267853,None,1,0.39728713035583496,459.6806061267853,None,460.16342997550964,None,461.1782100200653,461.5324251651764,461.1782100200653,461.5324251651764,460.16342997550964,None,460.16342997550964,None,460.16342997550964,None,0,3,229.73322868347168,549.8623847961426,right,462.85017919540405,None,400,450,Uma_pilot,icub,clamp,2021_Dec_17_1503,exp,2021.2.3,59.963515545922945,
right,stop,1,0,1,0,1,5,11,5,463.3683850765228,None,1,0.4365198612213135,463.3683850765228,None,463.91215205192566,None,464.9237310886383,465.2616980075836,464.9237310886383,465.2616980075836,463.91215205192566,None,463.91215205192566,None,463.91215205192566,None,0,3,201.07293128967285,522.3062038421631,right,466.51830196380615,None,400,400,Uma_pilot,icub,clamp,2021_Dec_17_1503,exp,2021.2.3,59.963515545922945,
left,go,1,0,1,0,2,0,12,0,467.0359981060028,None,1,0.29498887062072754,467.0359981060028,None,467.43466114997864,None,468.4565210342407,468.7978789806366,468.4565210342407,468.7978789806366,467.43466114997864,None,467.43466114997864,None,467.43466114997864,None,1,3,495.2130317687988,655.6925773620605,left,470.47560811042786,None,-1,-1,Uma_pilot,icub,clamp,2021_Dec_17_1503,exp,2021.2.3,59.963515545922945,
right,stop,1,0,1,0,2,1,13,5,470.9960091114044,None,1,0.4327220916748047,470.9960091114044,None,471.53917503356934,None,472.57137298583984,472.9176709651947,472.57137298583984,472.9176709651947,471.53917503356934,None,471.53917503356934,None,471.53917503356934,None,1,3,340.9533500671387,-1.0,-1,476.7907919883728,None,400,350,Uma_pilot,icub,clamp,2021_Dec_17_1503,exp,2021.2.3,59.963515545922945,
right,stop,1,0,1,0,2,2,14,5,477.3229410648346,None,1,0.09724593162536621,477.3229410648346,None,477.5019931793213,None,478.48038601875305,478.84525203704834,478.48038601875305,478.84525203704834,477.5019931793213,None,477.5019931793213,None,477.5019931793213,None,0,3,-1.0,-1.0,-1,479.3809711933136,None,,,Uma_pilot,icub,clamp,2021_Dec_17_1503,exp,2021.2.3,59.963515545922945,
left,stop,1,0,1,0,2,3,15,2,479.89979314804077,None,1,1.1778459548950195,479.89979314804077,None,481.18449115753174,None,482.1917071342468,482.5575761795044,482.1917071342468,482.5575761795044,481.18449115753174,None,481.18449115753174,None,481.18449115753174,None,1,3,293.6418056488037,-1.0,-1,486.3681151866913,None,400,400,Uma_pilot,icub,clamp,2021_Dec_17_1503,exp,2021.2.3,59.963515545922945,
right,go,1,0,1,0,2,4,16,4,486.8609881401062,None,1,0.6052300930023193,486.8609881401062,None,487.59773898124695,None,488.5726170539856,488.92706203460693,488.5726170539856,488.92706203460693,487.59773898124695,None,487.59773898124695,None,487.59773898124695,None,1,3,375.91052055358887,788.2096767425537,right,490.66245698928833,None,-1,-1,Uma_pilot,icub,clamp,2021_Dec_17_1503,exp,2021.2.3,59.963515545922945,
left,stop,1,0,1,0,2,5,17,2,491.17852306365967,None,1,0.5013971328735352,491.17852306365967,None,491.770681142807,None,492.7699580192566,493.13720703125,492.7699580192566,493.13720703125,491.770681142807,None,491.770681142807,None,491.770681142807,None,1,3,121.0625171661377,-1.0,-1,496.7893810272217,None,450,400,Uma_pilot,icub,clamp,2021_Dec_17_1503,exp,2021.2.3,59.963515545922945,
right,go,1,0,1,0,3,0,18,3,497.32041597366333,None,1,1.6848249435424805,497.32041597366333,None,499.1039409637451,None,500.0831241607666,500.4220361709595,500.0831241607666,500.4220361709595,499.1039409637451,None,499.1039409637451,None,499.1039409637451,None,1,3,323.65918159484863,509.4277858734131,right,501.831346988678,None,-1,-1,Uma_pilot,icub,clamp,2021_Dec_17_1503,exp,2021.2.3,59.963515545922945,
left,stop,1,0,1,0,3,1,19,2,502.3485469818115,None,1,0.3284640312194824,502.3485469818115,None,502.76565504074097,None,503.76577496528625,504.1121201515198,503.76577496528625,504.1121201515198,502.76565504074097,None,502.76565504074097,None,502.76565504074097,None,1,3,45.75181007385254,-1.0,-1,507.7105641365051,None,500,400,Uma_pilot,icub,clamp,2021_Dec_17_1503,exp,2021.2.3,59.963515545922945,
right,go,1,0,1,0,3,2,20,3,508.24250507354736,None,1,0.8155529499053955,508.24250507354736,None,509.16301918029785,None,510.1394159793854,510.4957890510559,510.1394159793854,510.4957890510559,509.16301918029785,None,509.16301918029785,None,509.16301918029785,None,1,3,579.7033309936523,611.5562915802002,right,512.248615026474,None,-1,-1,Uma_pilot,icub,clamp,2021_Dec_17_1503,exp,2021.2.3,59.963515545922945,
right,stop,1,0,1,0,3,3,21,5,512.7824120521545,None,1,0.5292630195617676,512.7824120521545,None,513.3870401382446,None,514.4139220714569,514.7641191482544,514.4139220714569,514.7641191482544,513.3870401382446,None,513.3870401382446,None,513.3870401382446,None,1,3,1807.9941272735596,-1.0,-1,520.0872220993042,None,550,400,Uma_pilot,icub,clamp,2021_Dec_17_1503,exp,2021.2.3,59.963515545922945,
right,go,1,0,1,0,3,4,22,4,520.6191401481628,None,1,0.36892008781433105,520.6191401481628,None,521.1081581115723,None,522.091283082962,522.4254331588745,522.091283082962,522.4254331588745,521.1081581115723,None,521.1081581115723,None,521.1081581115723,None,1,3,225.93951225280762,549.8626232147217,right,523.7599411010742,None,-1,-1,Uma_pilot,icub,clamp,2021_Dec_17_1503,exp,2021.2.3,59.963515545922945,
right,go,1,0,1,0,3,5,23,3,524.2700560092926,None,1,0.5699198246002197,524.2700560092926,None,524.9354431629181,None,525.9684109687805,526.3326110839844,525.9684109687805,526.3326110839844,524.9354431629181,None,524.9354431629181,None,524.9354431629181,None,1,3,140.4261589050293,608.2537174224854,right,527.5668301582336,None,-1,-1,Uma_pilot,icub,clamp,2021_Dec_17_1503,exp,2021.2.3,59.963515545922945,
left,go,1,0,1,0,4,0,24,0,528.1019730567932,None,1,0.3328409194946289,528.1019730567932,None,528.5205521583557,None,529.5133020877838,529.8727121353149,529.5133020877838,529.8727121353149,528.5205521583557,None,528.5205521583557,None,528.5205521583557,None,1,3,261.9595527648926,662.5714302062988,left,531.3216161727905,None,-1,-1,Uma_pilot,icub,clamp,2021_Dec_17_1503,exp,2021.2.3,59.963515545922945,
left,go,1,0,1,0,4,1,25,1,531.8470430374146,None,1,0.5866990089416504,531.8470430374146,None,532.514163017273,None,533.5457961559296,533.9002401828766,533.5457961559296,533.9002401828766,532.514163017273,None,532.514163017273,None,532.514163017273,None,1,3,419.04187202453613,602.6995182037354,left,535.4130980968475,None,-1,-1,Uma_pilot,icub,clamp,2021_Dec_17_1503,exp,2021.2.3,59.963515545922945,
right,go,1,0,1,0,4,2,26,4,535.9179730415344,None,1,0.3737502098083496,535.9179730415344,None,536.4025201797485,None,537.4113280773163,537.7635099887848,537.4113280773163,537.7635099887848,536.4025201797485,None,536.4025201797485,None,536.4025201797485,None,1,3,373.76952171325684,526.799201965332,right,539.1957449913025,None,-1,-1,Uma_pilot,icub,clamp,2021_Dec_17_1503,exp,2021.2.3,59.963515545922945,
left,go,1,0,1,0,4,3,27,1,539.7136700153351,None,1,0.3957200050354004,539.7136700153351,None,540.195032119751,None,541.1997411251068,541.5568740367889,541.1997411251068,541.5568740367889,540.195032119751,None,540.195032119751,None,540.195032119751,None,1,3,320.68467140197754,651.116132736206,left,543.0611190795898,None,-1,-1,Uma_pilot,icub,clamp,2021_Dec_17_1503,exp,2021.2.3,59.963515545922945,
left,go,1,0,1,0,4,4,28,0,543.5898501873016,None,1,0.42106199264526367,543.5898501873016,None,544.1309311389923,None,545.1522510051727,545.5051720142365,545.1522510051727,545.5051720142365,544.1309311389923,None,544.1309311389923,None,544.1309311389923,None,1,3,311.09046936035156,569.4749355316162,left,546.913810968399,None,-1,-1,Uma_pilot,icub,clamp,2021_Dec_17_1503,exp,2021.2.3,59.963515545922945,
left,stop,1,0,1,0,4,5,29,2,547.4481081962585,None,1,0.5086829662322998,547.4481081962585,None,548.052668094635,None,549.0458590984344,549.4084939956665,549.0458590984344,549.4084939956665,548.052668094635,None,548.052668094635,None,548.052668094635,None,0,3,281.1627388000488,679.5711517333984,left,550.8948700428009,None,550,450,Uma_pilot,icub,clamp,2021_Dec_17_1503,exp,2021.2.3,59.963515545922945,
right,go,1,0,1,0,5,0,30,3,551.4055919647217,None,1,0.5998220443725586,551.4055919647217,None,552.1285381317139,None,553.1488909721375,553.4998531341553,553.1488909721375,553.4998531341553,552.1285381317139,None,552.1285381317139,None,552.1285381317139,None,1,3,424.2730140686035,488.87085914611816,right,554.9336891174316,None,-1,-1,Uma_pilot,icub,clamp,2021_Dec_17_1503,exp,2021.2.3,59.963515545922945,
left,stop,1,0,1,0,5,1,31,2,555.4436190128326,None,1,0.3120570182800293,555.4436190128326,None,555.8663091659546,None,556.899167060852,557.2509741783142,556.899167060852,557.2509741783142,555.8663091659546,None,555.8663091659546,None,555.8663091659546,None,1,3,578.070878982544,-1.0,-1,561.3509221076965,None,500,450,Uma_pilot,icub,clamp,2021_Dec_17_1503,exp,2021.2.3,59.963515545922945,
right,stop,1,0,1,0,5,2,32,5,561.8828041553497,None,1,0.49018096923828125,561.8828041553497,None,562.4945960044861,None,563.5066201686859,563.8540091514587,563.5066201686859,563.8540091514587,562.4945960044861,None,562.4945960044861,None,562.4945960044861,None,1,3,634.7155570983887,-1.0,-1,567.9973390102386,None,550,450,Uma_pilot,icub,clamp,2021_Dec_17_1503,exp,2021.2.3,59.963515545922945,
right,go,1,0,1,0,5,3,33,3,568.5296821594238,None,1,0.5542130470275879,568.5296821594238,None,569.2048940658569,None,570.2143061161041,570.5773470401764,570.2143061161041,570.5773470401764,569.2048940658569,None,569.2048940658569,None,569.2048940658569,None,1,3,427.5679588317871,730.0972938537598,right,572.259024143219,None,-1,-1,Uma_pilot,icub,clamp,2021_Dec_17_1503,exp,2021.2.3,59.963515545922945,
right,go,1,0,1,0,5,4,34,4,572.7711770534515,None,1,0.3318808078765869,572.7711770534515,None,573.1939680576324,None,574.2129991054535,574.5677950382233,574.2129991054535,574.5677950382233,573.1939680576324,None,573.1939680576324,None,573.1939680576324,None,1,3,397.52793312072754,611.6757392883301,right,576.1009261608124,None,-1,-1,Uma_pilot,icub,clamp,2021_Dec_17_1503,exp,2021.2.3,59.963515545922945,
left,stop,1,0,1,0,5,5,35,2,576.6078751087189,None,1,0.2583329677581787,576.6078751087189,None,576.9674789905548,None,577.999106168747,578.3578021526337,577.999106168747,578.3578021526337,576.9674789905548,None,576.9674789905548,None,576.9674789905548,None,0,3,363.8277053833008,509.4583034515381,left,579.7549090385437,None,550,500,Uma_pilot,icub,clamp,2021_Dec_17_1503,exp,2021.2.3,59.963515545922945,
left,stop,1,0,1,0,6,0,36,2,580.272066116333,None,1,0.608950138092041,580.272066116333,None,580.9558951854706,None,581.987282037735,582.3361170291901,581.987282037735,582.3361170291901,580.9558951854706,None,580.9558951854706,None,580.9558951854706,None,1,3,480.3032875061035,-1.0,-1,586.3522880077362,None,500,500,Uma_pilot,icub,clamp,2021_Dec_17_1503,exp,2021.2.3,59.963515545922945,
left,go,1,0,1,0,6,1,37,0,586.8468000888824,None,1,0.620124101638794,586.8468000888824,None,587.5832550525665,None,588.567232131958,588.9099400043488,588.567232131958,588.9099400043488,587.5832550525665,None,587.5832550525665,None,587.5832550525665,None,1,3,559.4296455383301,554.1226863861084,left,590.5747690200806,None,-1,-1,Uma_pilot,icub,clamp,2021_Dec_17_1503,exp,2021.2.3,59.963515545922945,
left,go,1,0,1,0,6,2,38,1,591.094516992569,None,1,0.1697521209716797,591.094516992569,None,591.3869841098785,None,592.3831939697266,592.7518541812897,592.3831939697266,592.7518541812897,591.3869841098785,None,591.3869841098785,None,591.3869841098785,None,1,3,504.73952293395996,472.8097915649414,left,594.2361750602722,None,-1,-1,Uma_pilot,icub,clamp,2021_Dec_17_1503,exp,2021.2.3,59.963515545922945,
left,go,1,0,1,0,6,3,39,1,594.7545211315155,None,1,0.33163905143737793,594.7545211315155,None,595.1722741127014,None,596.175127029419,596.5356261730194,596.175127029419,596.5356261730194,595.1722741127014,None,595.1722741127014,None,595.1722741127014,None,1,3,445.52063941955566,494.459867477417,left,597.9951241016388,None,-1,-1,Uma_pilot,icub,clamp,2021_Dec_17_1503,exp,2021.2.3,59.963515545922945,
right,go,1,0,1,0,6,4,40,3,598.5119750499725,None,1,0.42474889755249023,598.5119750499725,None,599.0275931358337,None,600.029942035675,600.3748250007629,600.029942035675,600.3748250007629,599.0275931358337,None,599.0275931358337,None,599.0275931358337,None,1,3,382.71403312683105,643.1164741516113,right,601.929582118988,None,-1,-1,Uma_pilot,icub,clamp,2021_Dec_17_1503,exp,2021.2.3,59.963515545922945,
left,stop,1,0,1,0,6,5,41,2,602.4291760921478,None,1,0.19302797317504883,602.4291760921478,None,602.7231640815735,None,603.7489960193634,604.1181321144104,603.7489960193634,604.1181321144104,602.7231640815735,None,602.7231640815735,None,602.7231640815735,None,0,3,651.9768238067627,649.0209102630615,left,605.9052550792694,None,550,500,Uma_pilot,icub,clamp,2021_Dec_17_1503,exp,2021.2.3,59.963515545922945,
right,go,1,0,1,0,7,0,42,4,606.4076371192932,None,1,0.43274497985839844,606.4076371192932,None,606.9472420215607,None,607.9815330505371,608.3444950580597,607.9815330505371,608.3444950580597,606.9472420215607,None,606.9472420215607,None,606.9472420215607,None,1,3,351.87363624572754,501.2392997741699,right,609.6776461601257,None,-1,-1,Uma_pilot,icub,clamp,2021_Dec_17_1503,exp,2021.2.3,59.963515545922945,
right,go,1,0,1,0,7,1,43,3,610.1772041320801,None,1,0.42522096633911133,610.1772041320801,None,610.7161710262299,None,611.7443311214447,612.0690271854401,611.7443311214447,612.0690271854401,610.7161710262299,None,610.7161710262299,None,610.7161710262299,None,1,3,301.023006439209,522.3817825317383,right,613.4425530433655,None,-1,-1,Uma_pilot,icub,clamp,2021_Dec_17_1503,exp,2021.2.3,59.963515545922945,
left,stop,1,0,1,0,7,2,44,2,613.9609479904175,None,1,0.5602419376373291,613.9609479904175,None,614.6289410591125,None,615.6394460201263,615.961061000824,615.6394460201263,615.961061000824,614.6289410591125,None,614.6289410591125,None,614.6289410591125,None,0,3,870.2774047851562,666.3994789123535,left,618.0592520236969,None,500,500,Uma_pilot,icub,clamp,2021_Dec_17_1503,exp,2021.2.3,59.963515545922945,
right,go,1,0,1,0,7,3,45,4,618.5602331161499,None,1,0.379180908203125,618.5602331161499,None,619.0400900840759,None,620.0368881225586,620.3604950904846,620.0368881225586,620.3604950904846,619.0400900840759,None,619.0400900840759,None,619.0400900840759,None,1,3,403.77211570739746,487.9136085510254,right,621.8310639858246,None,-1,-1,Uma_pilot,icub,clamp,2021_Dec_17_1503,exp,2021.2.3,59.963515545922945,
right,go,1,0,1,0,7,4,46,3,622.3275520801544,None,1,0.3186218738555908,622.3275520801544,None,622.7470901012421,None,623.7598140239716,624.1237161159515,623.7598140239716,624.1237161159515,622.7470901012421,None,622.7470901012421,None,622.7470901012421,None,1,3,302.6163578033447,567.9523944854736,right,625.5155940055847,None,-1,-1,Uma_pilot,icub,clamp,2021_Dec_17_1503,exp,2021.2.3,59.963515545922945,
left,stop,1,0,1,0,7,5,47,2,626.0305202007294,None,1,0.5030879974365234,626.0305202007294,None,626.6347379684448,None,627.6632170677185,627.9919300079346,627.6632170677185,627.9919300079346,626.6347379684448,None,626.6347379684448,None,626.6347379684448,None,0,3,242.3250675201416,556.9472312927246,left,629.3266830444336,None,450,500,Uma_pilot,icub,clamp,2021_Dec_17_1503,exp,2021.2.3,59.963515545922945,
left,go,1,0,1,0,8,0,48,0,629.842894077301,None,1,0.3215501308441162,629.842894077301,None,630.2654922008514,None,631.2574281692505,631.6240100860596,631.2574281692505,631.6240100860596,630.2654922008514,None,630.2654922008514,None,630.2654922008514,None,1,3,1408.2190990447998,706.514835357666,left,634.2586829662323,None,-1,-1,Uma_pilot,icub,clamp,2021_Dec_17_1503,exp,2021.2.3,59.963515545922945,
right,stop,1,0,1,0,8,1,49,5,634.7868461608887,None,1,0.27059388160705566,634.7868461608887,None,635.1482861042023,None,636.1791191101074,636.5119540691376,636.1791191101074,636.5119540691376,635.1482861042023,None,635.1482861042023,None,635.1482861042023,None,0,3,280.9453010559082,594.4323539733887,right,637.9242331981659,None,400,500,Uma_pilot,icub,clamp,2021_Dec_17_1503,exp,2021.2.3,59.963515545922945,
left,go,1,0,1,0,8,2,50,1,638.4405300617218,None,1,0.29177117347717285,638.4405300617218,None,638.8560810089111,None,639.857773065567,640.2016930580139,639.857773065567,640.2016930580139,638.8560810089111,None,638.8560810089111,None,638.8560810089111,None,1,3,352.9849052429199,737.8685474395752,left,641.8246970176697,None,-1,-1,Uma_pilot,icub,clamp,2021_Dec_17_1503,exp,2021.2.3,59.963515545922945,
left,go,1,0,1,0,8,3,51,1,642.3454930782318,None,1,0.2537860870361328,642.3454930782318,None,642.7062320709229,None,643.722836971283,644.0863711833954,643.722836971283,644.0863711833954,642.7062320709229,None,642.7062320709229,None,642.7062320709229,None,1,3,492.7797317504883,886.5547180175781,left,645.9810521602631,None,-1,-1,Uma_pilot,icub,clamp,2021_Dec_17_1503,exp,2021.2.3,59.963515545922945,
right,go,1,0,1,0,8,4,52,4,646.4913041591644,None,1,0.3310880661010742,646.4913041591644,None,646.9127941131592,None,647.910150051117,648.2599790096283,647.910150051117,648.2599790096283,646.9127941131592,None,646.9127941131592,None,646.9127941131592,None,1,3,450.0443935394287,794.5857048034668,right,650.0269901752472,None,-1,-1,Uma_pilot,icub,clamp,2021_Dec_17_1503,exp,2021.2.3,59.963515545922945,
left,go,1,0,1,0,8,5,53,0,650.5453631877899,None,1,0.2701091766357422,650.5453631877899,None,650.9061830043793,None,651.8950569629669,652.2373650074005,651.8950569629669,652.2373650074005,650.9061830043793,None,650.9061830043793,None,650.9061830043793,None,1,3,642.749547958374,641.7338848114014,left,654.089714050293,None,-1,-1,Uma_pilot,icub,clamp,2021_Dec_17_1503,exp,2021.2.3,59.963515545922945,
right,go,1,0,1,0,9,0,54,4,654.6216380596161,None,1,0.3860759735107422,654.6216380596161,None,655.1008951663971,None,656.1273560523987,656.4656851291656,656.1273560523987,656.4656851291656,655.1008951663971,None,655.1008951663971,None,655.1008951663971,None,1,3,481.0068607330322,998.2216358184814,right,658.4786009788513,None,-1,-1,Uma_pilot,icub,clamp,2021_Dec_17_1503,exp,2021.2.3,59.963515545922945,
right,go,1,0,1,0,9,1,55,3,659.0123300552368,None,1,0.6381089687347412,659.0123300552368,None,659.7357079982758,None,660.7289249897003,661.0820360183716,660.7289249897003,661.0820360183716,659.7357079982758,None,659.7357079982758,None,659.7357079982758,None,1,3,188.66968154907227,540.8244132995605,right,662.3435161113739,None,-1,-1,Uma_pilot,icub,clamp,2021_Dec_17_1503,exp,2021.2.3,59.963515545922945,
right,go,1,0,1,0,9,2,56,4,662.8656570911407,None,1,0.36169004440307617,662.8656570911407,None,663.3414170742035,None,664.3573529720306,664.7259690761566,664.3573529720306,664.7259690761566,663.3414170742035,None,663.3414170742035,None,663.3414170742035,None,1,3,398.31018447875977,460.1917266845703,right,666.1037611961365,None,-1,-1,Uma_pilot,icub,clamp,2021_Dec_17_1503,exp,2021.2.3,59.963515545922945,
left,go,1,0,1,0,9,3,57,1,666.6148099899292,None,1,0.5653560161590576,666.6148099899292,None,667.2810151576996,None,668.2786781787872,668.6460390090942,668.2786781787872,668.6460390090942,667.2810151576996,None,667.2810151576996,None,667.2810151576996,None,1,3,615.9458160400391,1391.5553092956543,left,671.180438041687,None,-1,-1,Uma_pilot,icub,clamp,2021_Dec_17_1503,exp,2021.2.3,59.963515545922945,
left,go,1,0,1,0,9,4,58,1,671.7049441337585,None,1,0.5054988861083984,671.7049441337585,None,672.3096120357513,None,673.3078570365906,673.6771671772003,673.3078570365906,673.6771671772003,672.3096120357513,None,672.3096120357513,None,672.3096120357513,None,1,3,409.12628173828125,927.2136688232422,left,675.5356311798096,None,-1,-1,Uma_pilot,icub,clamp,2021_Dec_17_1503,exp,2021.2.3,59.963515545922945,
right,go,1,0,1,0,9,5,59,4,676.0405490398407,None,1,0.3467748165130615,676.0405490398407,None,676.4626619815826,None,677.4554851055145,677.8134050369263,677.4554851055145,677.8134050369263,676.4626619815826,None,676.4626619815826,None,676.4626619815826,None,1,3,553.9734363555908,586.0683917999268,right,679.5049111843109,None,-1,-1,Uma_pilot,icub,clamp,2021_Dec_17_1503,exp,2021.2.3,59.963515545922945,
left,go,1,0,1,0,10,0,60,0,680.0312631130219,None,1,0.2598910331726074,680.0312631130219,None,680.3920249938965,None,681.4067690372467,681.7511270046234,681.4067690372467,681.7511270046234,680.3920249938965,None,680.3920249938965,None,680.3920249938965,None,1,3,178.30824851989746,584.2714309692383,left,683.0373120307922,None,-1,-1,Uma_pilot,icub,clamp,2021_Dec_17_1503,exp,2021.2.3,59.963515545922945,
left,stop,1,0,1,0,10,1,61,2,683.5572521686554,None,1,0.5507907867431641,683.5572521686554,None,684.2145321369171,None,685.2153511047363,685.5683081150055,685.2153511047363,685.5683081150055,684.2145321369171,None,684.2145321369171,None,684.2145321369171,None,0,3,312.819242477417,568.4542655944824,left,686.9807670116425,None,400,450,Uma_pilot,icub,clamp,2021_Dec_17_1503,exp,2021.2.3,59.963515545922945,
right,go,1,0,1,0,10,2,62,3,687.4876120090485,None,1,0.45392584800720215,687.4876120090485,None,688.0323510169983,None,689.0484700202942,689.399952173233,689.0484700202942,689.399952173233,688.0323510169983,None,688.0323510169983,None,688.0323510169983,None,1,3,539.9725437164307,813.9500617980957,right,691.2860181331635,None,-1,-1,Uma_pilot,icub,clamp,2021_Dec_17_1503,exp,2021.2.3,59.963515545922945,
right,go,1,0,1,0,10,3,63,3,691.7901690006256,None,1,0.4150350093841553,691.7901690006256,None,692.3341641426086,None,693.3533301353455,693.7041230201721,693.3533301353455,693.7041230201721,692.3341641426086,None,692.3341641426086,None,692.3341641426086,None,1,3,324.0854740142822,473.5898971557617,right,695.0138430595398,None,-1,-1,Uma_pilot,icub,clamp,2021_Dec_17_1503,exp,2021.2.3,59.963515545922945,
left,go,1,0,1,0,10,4,64,0,695.5315389633179,None,1,0.29407310485839844,695.5315389633179,None,695.9397630691528,None,696.965677022934,697.3213460445404,696.965677022934,697.3213460445404,695.9397630691528,None,695.9397630691528,None,695.9397630691528,None,1,3,323.0910301208496,596.7857837677002,left,698.7643191814423,None,-1,-1,Uma_pilot,icub,clamp,2021_Dec_17_1503,exp,2021.2.3,59.963515545922945,
left,stop,1,0,1,0,10,5,65,2,699.3013250827789,None,1,0.3176441192626953,699.3013250827789,None,699.7199521064758,None,700.7150750160217,701.0716650485992,700.7150750160217,701.0716650485992,699.7199521064758,None,699.7199521064758,None,699.7199521064758,None,1,3,392.5518989562988,-1.0,-1,704.9886221885681,None,350,450,Uma_pilot,icub,clamp,2021_Dec_17_1503,exp,2021.2.3,59.963515545922945,
right,stop,1,0,1,0,11,0,66,5,705.5204181671143,None,1,0.0630960464477539,705.5204181671143,None,705.7001750469208,None,706.6872050762177,707.0441780090332,706.6872050762177,707.0441780090332,705.7001750469208,None,705.7001750469208,None,705.7001750469208,None,1,3,431.3240051269531,-1.0,-1,711.0227501392365,None,400,450,Uma_pilot,icub,clamp,2021_Dec_17_1503,exp,2021.2.3,59.963515545922945,
left,go,1,0,1,0,11,1,67,0,711.5549280643463,None,1,0.1554582118988037,711.5549280643463,None,711.796571969986,None,712.7712361812592,713.1246340274811,712.7712361812592,713.1246340274811,711.796571969986,None,711.796571969986,None,711.796571969986,None,1,3,520.5717086791992,684.7796440124512,left,714.8947021961212,None,-1,-1,Uma_pilot,icub,clamp,2021_Dec_17_1503,exp,2021.2.3,59.963515545922945,
right,go,1,0,1,0,11,2,68,4,715.4137740135193,None,1,0.2812178134918213,715.4137740135193,None,715.770437002182,None,716.7714450359344,717.1266760826111,716.7714450359344,717.1266760826111,715.770437002182,None,715.770437002182,None,715.770437002182,None,1,3,567.8653717041016,1185.258150100708,right,719.4117650985718,None,-1,-1,Uma_pilot,icub,clamp,2021_Dec_17_1503,exp,2021.2.3,59.963515545922945,
left,go,1,0,1,0,11,3,69,1,719.9118840694427,None,1,0.8711872100830078,719.9118840694427,None,720.8873541355133,None,721.9214069843292,722.2720680236816,721.9214069843292,722.2720680236816,720.8873541355133,None,720.8873541355133,None,720.8873541355133,None,1,3,285.87889671325684,580.7721614837646,left,723.6325821876526,None,-1,-1,Uma_pilot,icub,clamp,2021_Dec_17_1503,exp,2021.2.3,59.963515545922945,
right,go,1,0,1,0,11,4,70,3,724.1501040458679,None,1,0.36364197731018066,724.1501040458679,None,724.6202890872955,None,725.6253440380096,725.9870049953461,725.6253440380096,725.9870049953461,724.6202890872955,None,724.6202890872955,None,724.6202890872955,None,1,3,413.3341312408447,645.8685398101807,right,727.572389125824,None,-1,-1,Uma_pilot,icub,clamp,2021_Dec_17_1503,exp,2021.2.3,59.963515545922945,
right,go,1,0,1,0,11,5,71,4,728.0875070095062,None,1,0.36235809326171875,728.0875070095062,None,728.5656540393829,None,729.5693111419678,729.9184441566467,729.5693111419678,729.9184441566467,728.5656540393829,None,728.5656540393829,None,728.5656540393829,None,1,3,244.4441318511963,480.55028915405273,right,731.1637811660767,None,-1,-1,Uma_pilot,icub,clamp,2021_Dec_17_1503,exp,2021.2.3,59.963515545922945,
right,stop,1,0,1,0,12,0,72,5,731.6777081489563,None,1,0.444350004196167,731.6777081489563,None,732.2244420051575,None,733.236310005188,733.5834419727325,733.236310005188,733.5834419727325,732.2244420051575,None,732.2244420051575,None,732.2244420051575,None,0,3,39.93034362792969,557.3685169219971,right,734.7121670246124,None,400,500,Uma_pilot,icub,clamp,2021_Dec_17_1503,exp,2021.2.3,59.963515545922945,
right,stop,1,0,1,0,12,1,73,5,735.2092461585999,None,1,0.512686014175415,735.2092461585999,None,735.7974920272827,None,736.7998371124268,737.1469171047211,736.7998371124268,737.1469171047211,735.7974920272827,None,735.7974920272827,None,735.7974920272827,None,1,3,80.09171485900879,-1.0,-1,740.7616100311279,None,400,450,Uma_pilot,icub,clamp,2021_Dec_17_1503,exp,2021.2.3,59.963515545922945,
left,go,1,0,1,0,12,2,74,0,741.2553191184998,None,1,0.6340429782867432,741.2553191184998,None,741.9932110309601,None,742.9899899959564,743.3332810401917,742.9899899959564,743.3332810401917,741.9932110309601,None,741.9932110309601,None,741.9932110309601,None,1,3,97.08070755004883,604.0680408477783,left,744.5878381729126,None,-1,-1,Uma_pilot,icub,clamp,2021_Dec_17_1503,exp,2021.2.3,59.963515545922945,
right,stop,1,0,1,0,12,3,75,5,745.0968391895294,None,1,0.3819539546966553,745.0968391895294,None,745.5801701545715,None,746.6058361530304,746.948399066925,746.6058361530304,746.948399066925,745.5801701545715,None,745.5801701545715,None,745.5801701545715,None,0,3,95.53647041320801,586.693525314331,right,748.1482841968536,None,400,500,Uma_pilot,icub,clamp,2021_Dec_17_1503,exp,2021.2.3,59.963515545922945,
left,go,1,0,1,0,12,4,76,0,748.6546700000763,None,1,0.4282989501953125,748.6546700000763,None,749.1969060897827,None,750.2024409770966,750.5557360649109,750.2024409770966,750.5557360649109,749.1969060897827,None,749.1969060897827,None,749.1969060897827,None,1,3,505.48768043518066,1393.5706615447998,left,752.9784770011902,None,-1,-1,Uma_pilot,icub,clamp,2021_Dec_17_1503,exp,2021.2.3,59.963515545922945,
right,go,1,0,1,0,12,5,77,4,753.4886820316315,None,1,0.33710408210754395,753.4886820316315,None,753.9110519886017,None,754.9235689640045,755.2832341194153,754.9235689640045,755.2832341194153,753.9110519886017,None,753.9110519886017,None,753.9110519886017,None,1,3,237.49899864196777,738.518238067627,right,756.7881991863251,None,-1,-1,Uma_pilot,icub,clamp,2021_Dec_17_1503,exp,2021.2.3,59.963515545922945,
left,go,2,0,2,0,0,0,0,1,779.2289941310883,None,1,5.374902009963989,779.2289941310883,None,784.6904511451721,None,None,None,None,None,784.6904511451721,None,784.6904511451721,None,784.6904511451721,None,0,3,-1.0,-1.0,-1,785.0065021514893,None,,,Uma_pilot,icub,clamp,2021_Dec_17_1503,exp,2021.2.3,59.963515545922945,
left,stop,2,0,2,0,0,1,1,2,785.5374929904938,None,1,0.5545969009399414,785.5374929904938,None,786.2119770050049,None,787.1856169700623,787.5447170734406,787.1856169700623,787.5447170734406,786.2119770050049,None,786.2119770050049,None,786.2119770050049,None,0,3,189.4855499267578,523.3855247497559,left,788.7898561954498,None,400,450,Uma_pilot,icub,clamp,2021_Dec_17_1503,exp,2021.2.3,59.963515545922945,
left,stop,2,0,2,0,0,2,2,2,789.3114490509033,None,1,0.4594109058380127,789.3114490509033,None,789.8566641807556,None,790.870236158371,791.2186870574951,790.870236158371,791.2186870574951,789.8566641807556,None,789.8566641807556,None,789.8566641807556,None,0,3,305.2349090576172,474.98202323913574,left,792.5150291919708,None,350,450,Uma_pilot,icub,clamp,2021_Dec_17_1503,exp,2021.2.3,59.963515545922945,
left,go,2,0,2,0,0,3,3,0,793.0156610012054,None,1,0.28388190269470215,793.0156610012054,None,793.3749160766602,None,794.3936371803284,794.7482280731201,794.3936371803284,794.7482280731201,793.3749160766602,None,793.3749160766602,None,793.3749160766602,None,0,3,-1.0,-1.0,-1,795.2376849651337,None,,,Uma_pilot,icub,clamp,2021_Dec_17_1503,exp,2021.2.3,59.963515545922945,
left,go,2,0,2,0,0,4,4,0,795.7702341079712,None,1,1.1828749179840088,795.7702341079712,None,797.0637001991272,None,798.0504591464996,798.3978450298309,798.0504591464996,798.3978450298309,797.0637001991272,None,797.0637001991272,None,797.0637001991272,None,1,3,412.003755569458,495.06282806396484,left,799.8594691753387,None,-1,-1,Uma_pilot,icub,clamp,2021_Dec_17_1503,exp,2021.2.3,59.963515545922945,
left,go,2,0,2,0,0,5,5,0,800.3721840381622,None,1,0.23654389381408691,800.3721840381622,None,800.7240681648254,None,801.7486510276794,802.0959470272064,801.7486510276794,802.0959470272064,800.7240681648254,None,800.7240681648254,None,800.7240681648254,None,1,3,360.19396781921387,580.4972648620605,left,803.5508861541748,None,-1,-1,Uma_pilot,icub,clamp,2021_Dec_17_1503,exp,2021.2.3,59.963515545922945,
left,stop,2,0,2,0,1,0,6,2,804.0668439865112,None,1,0.33548808097839355,804.0668439865112,None,804.5297701358795,None,805.5405130386353,805.8958601951599,805.5405130386353,805.8958601951599,804.5297701358795,None,804.5297701358795,None,804.5297701358795,None,1,3,846.1840152740479,-1.0,-1,810.2649371623993,None,300,450,Uma_pilot,icub,clamp,2021_Dec_17_1503,exp,2021.2.3,59.963515545922945,
left,go,2,0,2,0,1,1,7,1,810.7967631816864,None,1,0.26640987396240234,810.7967631816864,None,811.1623091697693,None,812.1347789764404,812.4765400886536,812.1347789764404,812.4765400886536,811.1623091697693,None,811.1623091697693,None,811.1623091697693,None,1,3,547.2636222839355,533.0073833465576,left,814.1123170852661,None,-1,-1,Uma_pilot,icub,clamp,2021_Dec_17_1503,exp,2021.2.3,59.963515545922945,
right,go,2,0,2,0,1,2,8,4,814.6252391338348,None,1,0.32399797439575195,814.6252391338348,None,815.0427930355072,None,816.0529751777649,816.3816320896149,816.0529751777649,816.3816320896149,815.0427930355072,None,815.0427930355072,None,815.0427930355072,None,1,3,667.1156883239746,1120.4020977020264,right,818.7241251468658,None,-1,-1,Uma_pilot,icub,clamp,2021_Dec_17_1503,exp,2021.2.3,59.963515545922945,
right,go,2,0,2,0,1,3,9,3,819.2393100261688,None,1,0.18245792388916016,819.2393100261688,None,819.533910036087,None,820.530678987503,820.8698291778564,820.530678987503,820.8698291778564,819.533910036087,None,819.533910036087,None,819.533910036087,None,1,3,331.41589164733887,482.2556972503662,right,822.2382411956787,None,-1,-1,Uma_pilot,icub,clamp,2021_Dec_17_1503,exp,2021.2.3,59.963515545922945,
right,go,2,0,2,0,1,4,10,4,822.7657120227814,None,1,0.3830089569091797,822.7657120227814,None,823.2504069805145,None,824.2703759670258,824.6262950897217,824.2703759670258,824.6262950897217,823.2504069805145,None,823.2504069805145,None,823.2504069805145,None,1,3,236.23204231262207,672.128438949585,right,826.0508770942688,None,-1,-1,Uma_pilot,icub,clamp,2021_Dec_17_1503,exp,2021.2.3,59.963515545922945,
right,go,2,0,2,0,1,5,11,3,826.584165096283,None,1,0.4510350227355957,826.584165096283,None,827.1175360679626,None,828.1159369945526,828.4720430374146,828.1159369945526,828.4720430374146,827.1175360679626,None,827.1175360679626,None,827.1175360679626,None,1,3,483.4027290344238,575.0324726104736,right,830.0613579750061,None,-1,-1,Uma_pilot,icub,clamp,2021_Dec_17_1503,exp,2021.2.3,59.963515545922945,
left,go,2,0,2,0,2,0,12,1,830.5842649936676,None,1,0.36029887199401855,830.5842649936676,None,831.0623941421509,None,832.0740211009979,832.422886133194,832.0740211009979,832.422886133194,831.0623941421509,None,831.0623941421509,None,831.0623941421509,None,1,3,262.96377182006836,614.6626472473145,left,833.8214781284332,None,-1,-1,Uma_pilot,icub,clamp,2021_Dec_17_1503,exp,2021.2.3,59.963515545922945,
right,stop,2,0,2,0,2,1,13,5,834.3490841388702,None,1,0.34672117233276367,834.3490841388702,None,834.8146941661835,None,835.8328530788422,836.192892074585,835.8328530788422,836.192892074585,834.8146941661835,None,834.8146941661835,None,834.8146941661835,None,0,3,143.15414428710938,483.75940322875977,right,837.358106136322,None,350,450,Uma_pilot,icub,clamp,2021_Dec_17_1503,exp,2021.2.3,59.963515545922945,
left,stop,2,0,2,0,2,2,14,2,837.8746020793915,None,1,0.38820981979370117,837.8746020793915,None,838.3536350727081,None,839.363284111023,839.7133240699768,839.363284111023,839.7133240699768,838.3536350727081,None,838.3536350727081,None,838.3536350727081,None,0,3,-1.0,-1.0,-1,839.9806110858917,None,,,Uma_pilot,icub,clamp,2021_Dec_17_1503,exp,2021.2.3,59.963515545922945,
left,go,2,0,2,0,2,3,15,0,840.5132541656494,None,1,0.9716851711273193,840.5132541656494,None,841.6211371421814,None,842.6054391860962,842.9659261703491,842.6054391860962,842.9659261703491,841.6211371421814,None,841.6211371421814,None,841.6211371421814,None,1,3,314.73755836486816,423.9764213562012,left,844.2421271800995,None,-1,-1,Uma_pilot,icub,clamp,2021_Dec_17_1503,exp,2021.2.3,59.963515545922945,
right,go,2,0,2,0,2,4,16,3,844.7591600418091,None,1,0.24322819709777832,844.7591600418091,None,845.117222070694,None,846.1250340938568,846.451574087143,846.1250340938568,846.451574087143,845.117222070694,None,845.117222070694,None,845.117222070694,None,1,3,434.04316902160645,573.6908912658691,right,847.9968550205231,None,-1,-1,Uma_pilot,icub,clamp,2021_Dec_17_1503,exp,2021.2.3,59.963515545922945,
right,go,2,0,2,0,2,5,17,4,848.5042049884796,None,1,0.26038694381713867,848.5042049884796,None,848.8660311698914,None,849.8769640922546,850.2338151931763,849.8769640922546,850.2338151931763,848.8660311698914,None,848.8660311698914,None,848.8660311698914,None,1,3,355.9703826904297,441.01595878601074,right,851.5477421283722,None,-1,-1,Uma_pilot,icub,clamp,2021_Dec_17_1503,exp,2021.2.3,59.963515545922945,
left,go,2,0,2,0,3,0,18,1,852.0595800876617,None,1,0.27582693099975586,852.0595800876617,None,852.4158840179443,None,853.4292299747467,853.7547850608826,853.4292299747467,853.7547850608826,852.4158840179443,None,852.4158840179443,None,852.4158840179443,None,1,3,554.7754764556885,577.4650573730469,left,855.4532761573792,None,-1,-1,Uma_pilot,icub,clamp,2021_Dec_17_1503,exp,2021.2.3,59.963515545922945,
right,stop,2,0,2,0,3,1,19,5,855.9898571968079,None,1,0.29263997077941895,855.9898571968079,None,856.4063501358032,None,857.4282419681549,857.7910981178284,857.4282419681549,857.7910981178284,856.4063501358032,None,856.4063501358032,None,856.4063501358032,None,0,3,216.34817123413086,484.67135429382324,right,859.0124731063843,None,350,400,Uma_pilot,icub,clamp,2021_Dec_17_1503,exp,2021.2.3,59.963515545922945,
left,go,2,0,2,0,3,2,20,0,859.5348091125488,None,1,0.2164781093597412,859.5348091125488,None,859.8319370746613,None,860.8225660324097,861.1755039691925,860.8225660324097,861.1755039691925,859.8319370746613,None,859.8319370746613,None,859.8319370746613,None,1,3,216.691255569458,520.0324058532715,left,862.4520630836487,None,-1,-1,Uma_pilot,icub,clamp,2021_Dec_17_1503,exp,2021.2.3,59.963515545922945,
left,stop,2,0,2,0,3,3,21,2,862.9682261943817,None,1,0.36411190032958984,862.9682261943817,None,863.4485859870911,None,864.454293012619,864.8039071559906,864.454293012619,864.8039071559906,863.4485859870911,None,863.4485859870911,None,863.4485859870911,None,1,3,575.608491897583,-1.0,-1,868.9008150100708,None,350,350,Uma_pilot,icub,clamp,2021_Dec_17_1503,exp,2021.2.3,59.963515545922945,
left,go,2,0,2,0,3,4,22,1,869.4325361251831,None,1,0.5175371170043945,869.4325361251831,None,870.0456461906433,None,871.0335431098938,871.3958611488342,871.0335431098938,871.3958611488342,870.0456461906433,None,870.0456461906433,None,870.0456461906433,None,1,3,276.386022567749,472.5191593170166,left,872.6715941429138,None,-1,-1,Uma_pilot,icub,clamp,2021_Dec_17_1503,exp,2021.2.3,59.963515545922945,
right,go,2,0,2,0,3,5,23,4,873.1892580986023,None,1,0.244981050491333,873.1892580986023,None,873.5436520576477,None,874.5578169822693,874.9072120189667,874.5578169822693,874.9072120189667,873.5436520576477,None,873.5436520576477,None,873.5436520576477,None,1,3,189.93163108825684,536.1058712005615,right,876.1576931476593,None,-1,-1,Uma_pilot,icub,clamp,2021_Dec_17_1503,exp,2021.2.3,59.963515545922945,
left,stop,2,0,2,0,4,0,24,2,876.6657381057739,None,1,0.3614778518676758,876.6657381057739,None,877.1465260982513,None,878.1589150428772,878.5140261650085,878.1589150428772,878.5140261650085,877.1465260982513,None,877.1465260982513,None,877.1465260982513,None,1,3,349.916934967041,-1.0,-1,882.390872001648,None,400,350,Uma_pilot,icub,clamp,2021_Dec_17_1503,exp,2021.2.3,59.963515545922945,
right,go,2,0,2,0,4,1,25,3,882.9248871803284,None,1,2.4411940574645996,882.9248871803284,None,885.4633650779724,None,886.4485301971436,886.8035950660706,886.4485301971436,886.8035950660706,885.4633650779724,None,885.4633650779724,None,885.4633650779724,None,1,3,280.7152271270752,449.48625564575195,right,888.06667304039,None,-1,-1,Uma_pilot,icub,clamp,2021_Dec_17_1503,exp,2021.2.3,59.963515545922945,
left,stop,2,0,2,0,4,2,26,2,888.597225189209,None,1,0.25304603576660156,888.597225189209,None,888.9550020694733,None,889.9616281986237,890.3187999725342,889.9616281986237,890.3187999725342,888.9550020694733,None,888.9550020694733,None,888.9550020694733,None,0,3,186.16795539855957,567.0680999755859,left,891.5990240573883,None,450,350,Uma_pilot,icub,clamp,2021_Dec_17_1503,exp,2021.2.3,59.963515545922945,
left,stop,2,0,2,0,4,3,27,2,892.123780965805,None,1,0.20150208473205566,892.123780965805,None,892.4160041809082,None,893.4356551170349,893.7924411296844,893.4356551170349,893.7924411296844,892.4160041809082,None,892.4160041809082,None,892.4160041809082,None,1,3,774.198055267334,-1.0,-1,898.1071660518646,None,400,350,Uma_pilot,icub,clamp,2021_Dec_17_1503,exp,2021.2.3,59.963515545922945,
right,go,2,0,2,0,4,4,28,4,898.6012580394745,None,1,0.6925239562988281,898.6012580394745,None,899.3997709751129,None,900.4086890220642,900.7623691558838,900.4086890220642,900.7623691558838,899.3997709751129,None,899.3997709751129,None,899.3997709751129,None,1,3,353.1033992767334,462.0480537414551,right,902.0975821018219,None,-1,-1,Uma_pilot,icub,clamp,2021_Dec_17_1503,exp,2021.2.3,59.963515545922945,
left,go,2,0,2,0,4,5,29,0,902.6167449951172,None,1,0.4094829559326172,902.6167449951172,None,903.1017980575562,None,904.1146061420441,904.443027973175,904.1146061420441,904.443027973175,903.1017980575562,None,903.1017980575562,None,903.1017980575562,None,1,3,413.7580394744873,498.03709983825684,left,905.915668964386,None,-1,-1,Uma_pilot,icub,clamp,2021_Dec_17_1503,exp,2021.2.3,59.963515545922945,
left,go,2,0,2,0,5,0,30,1,906.4330751895905,None,1,0.27211999893188477,906.4330751895905,None,906.7905161380768,None,907.7986931800842,908.1552159786224,907.7986931800842,908.1552159786224,906.7905161380768,None,906.7905161380768,None,906.7905161380768,None,1,3,364.0720844268799,1303.7190437316895,left,910.3515610694885,None,-1,-1,Uma_pilot,icub,clamp,2021_Dec_17_1503,exp,2021.2.3,59.963515545922945,
right,go,2,0,2,0,5,1,31,4,910.8595430850983,None,1,0.2776360511779785,910.8595430850983,None,911.2177231311798,None,912.2217750549316,912.5707521438599,912.2217750549316,912.5707521438599,911.2177231311798,None,911.2177231311798,None,911.2177231311798,None,1,3,281.9936275482178,595.2794551849365,right,913.9719381332397,None,-1,-1,Uma_pilot,icub,clamp,2021_Dec_17_1503,exp,2021.2.3,59.963515545922945,
right,go,2,0,2,0,5,2,32,4,914.4988331794739,None,1,0.2838900089263916,914.4988331794739,None,914.8958470821381,None,915.9275391101837,916.2965559959412,915.9275391101837,916.2965559959412,914.8958470821381,None,914.8958470821381,None,914.8958470821381,None,1,3,578.5830020904541,705.5134773254395,right,918.0702791213989,None,-1,-1,Uma_pilot,icub,clamp,2021_Dec_17_1503,exp,2021.2.3,59.963515545922945,
right,go,2,0,2,0,5,3,33,4,918.5871930122375,None,1,0.24103403091430664,918.5871930122375,None,918.942437171936,None,919.9619660377502,920.3098661899567,919.9619660377502,920.3098661899567,918.942437171936,None,918.942437171936,None,918.942437171936,None,1,3,688.0948543548584,731.7149639129639,right,922.2445001602173,None,-1,-1,Uma_pilot,icub,clamp,2021_Dec_17_1503,exp,2021.2.3,59.963515545922945,
left,go,2,0,2,0,5,4,34,1,922.7781610488892,None,1,0.2877650260925293,922.7781610488892,None,923.1941909790039,None,924.2096049785614,924.5547320842743,924.2096049785614,924.5547320842743,923.1941909790039,None,923.1941909790039,None,923.1941909790039,None,1,3,393.07427406311035,686.9082450866699,left,926.1665740013123,None,-1,-1,Uma_pilot,icub,clamp,2021_Dec_17_1503,exp,2021.2.3,59.963515545922945,
left,stop,2,0,2,0,5,5,35,2,926.6832120418549,None,1,0.33148884773254395,926.6832120418549,None,927.1012291908264,None,928.1053431034088,928.4624931812286,928.1053431034088,928.4624931812286,927.1012291908264,None,927.1012291908264,None,927.1012291908264,None,1,3,554.99267578125,-1.0,-1,932.5498151779175,None,450,350,Uma_pilot,icub,clamp,2021_Dec_17_1503,exp,2021.2.3,59.963515545922945,
right,go,2,0,2,0,6,0,36,4,933.081433057785,None,1,0.44617676734924316,933.081433057785,None,933.6317520141602,None,934.6310701370239,934.9975261688232,934.6310701370239,934.9975261688232,933.6317520141602,None,933.6317520141602,None,933.6317520141602,None,1,3,399.2724418640137,666.6049957275391,right,936.5899691581726,None,-1,-1,Uma_pilot,icub,clamp,2021_Dec_17_1503,exp,2021.2.3,59.963515545922945,
left,go,2,0,2,0,6,1,37,1,937.1041221618652,None,1,0.44403886795043945,937.1041221618652,None,937.6490881443024,None,938.6576340198517,938.980749130249,938.6576340198517,938.980749130249,937.6490881443024,None,937.6490881443024,None,937.6490881443024,None,1,3,622.6327419281006,683.7646961212158,left,940.8571300506592,None,-1,-1,Uma_pilot,icub,clamp,2021_Dec_17_1503,exp,2021.2.3,59.963515545922945,
left,go,2,0,2,0,6,2,38,1,941.3641710281372,None,1,0.5272500514984131,941.3641710281372,None,941.9720380306244,None,942.9766430854797,943.3253591060638,942.9766430854797,943.3253591060638,941.9720380306244,None,941.9720380306244,None,941.9720380306244,None,1,3,430.8969974517822,1053.4090995788574,left,945.338427066803,None,-1,-1,Uma_pilot,icub,clamp,2021_Dec_17_1503,exp,2021.2.3,59.963515545922945,
right,go,2,0,2,0,6,3,39,3,945.861664056778,None,1,0.35286712646484375,945.861664056778,None,946.3392271995544,None,947.3445551395416,947.6980381011963,947.3445551395416,947.6980381011963,946.3392271995544,None,946.3392271995544,None,946.3392271995544,None,1,3,479.4285297393799,778.8958549499512,right,949.4779651165009,None,-1,-1,Uma_pilot,icub,clamp,2021_Dec_17_1503,exp,2021.2.3,59.963515545922945,
right,go,2,0,2,0,6,4,40,4,949.9968011379242,None,1,0.26700901985168457,949.9968011379242,None,950.3346450328827,None,951.3489279747009,951.7034471035004,951.3489279747009,951.7034471035004,950.3346450328827,None,950.3346450328827,None,950.3346450328827,None,1,3,507.16233253479004,529.8621654510498,right,953.2727251052856,None,-1,-1,Uma_pilot,icub,clamp,2021_Dec_17_1503,exp,2021.2.3,59.963515545922945,
right,stop,2,0,2,0,6,5,41,5,953.7900099754333,None,1,0.382335901260376,953.7900099754333,None,954.2727739810944,None,955.2714011669159,955.6097960472107,955.2714011669159,955.6097960472107,954.2727739810944,None,954.2727739810944,None,954.2727739810944,None,0,3,407.54246711730957,476.4230251312256,right,957.0605821609497,None,500,350,Uma_pilot,icub,clamp,2021_Dec_17_1503,exp,2021.2.3,59.963515545922945,
left,go,2,0,2,0,7,0,42,0,957.5791680812836,None,1,0.3344600200653076,957.5791680812836,None,957.9992070198059,None,959.0074100494385,959.3545680046082,959.0074100494385,959.3545680046082,957.9992070198059,None,957.9992070198059,None,957.9992070198059,None,1,3,214.7195339202881,859.7049713134766,left,960.984934091568,None,-1,-1,Uma_pilot,icub,clamp,2021_Dec_17_1503,exp,2021.2.3,59.963515545922945,
left,stop,2,0,2,0,7,1,43,2,961.4997711181641,None,1,0.22141385078430176,961.4997711181641,None,961.8544290065765,None,962.8564929962158,963.1862699985504,962.8564929962158,963.1862699985504,961.8544290065765,None,961.8544290065765,None,961.8544290065765,None,1,3,437.711238861084,-1.0,-1,967.1892189979553,None,500,300,Uma_pilot,icub,clamp,2021_Dec_17_1503,exp,2021.2.3,59.963515545922945,
left,go,2,0,2,0,7,2,44,0,967.7225761413574,None,1,0.5922091007232666,967.7225761413574,None,968.3974781036377,None,969.384651184082,969.7302601337433,969.384651184082,969.7302601337433,968.3974781036377,None,968.3974781036377,None,968.3974781036377,None,1,3,417.4458980560303,483.75511169433594,left,971.186201095581,None,-1,-1,Uma_pilot,icub,clamp,2021_Dec_17_1503,exp,2021.2.3,59.963515545922945,
right,go,2,0,2,0,7,3,45,3,971.704020023346,None,1,0.39739990234375,971.704020023346,None,972.1869139671326,None,973.1954700946808,973.5605390071869,973.1954700946808,973.5605390071869,972.1869139671326,None,972.1869139671326,None,972.1869139671326,None,1,3,635.5688571929932,646.5120315551758,right,975.3490421772003,None,-1,-1,Uma_pilot,icub,clamp,2021_Dec_17_1503,exp,2021.2.3,59.963515545922945,
left,go,2,0,2,0,7,4,46,1,975.8791990280151,None,1,0.3149690628051758,975.8791990280151,None,976.2804930210114,None,977.3120641708374,977.6648390293121,977.3120641708374,977.6648390293121,976.2804930210114,None,976.2804930210114,None,976.2804930210114,None,1,3,686.9640350341797,650.489091873169,left,979.5282440185547,None,-1,-1,Uma_pilot,icub,clamp,2021_Dec_17_1503,exp,2021.2.3,59.963515545922945,
right,go,2,0,2,0,7,5,47,3,980.0486500263214,None,1,0.2610650062561035,980.0486500263214,None,980.3875300884247,None,981.390792131424,981.7479591369629,981.390792131424,981.7479591369629,980.3875300884247,None,980.3875300884247,None,980.3875300884247,None,1,3,490.4365539550781,571.5882778167725,right,983.3220961093903,None,-1,-1,Uma_pilot,icub,clamp,2021_Dec_17_1503,exp,2021.2.3,59.963515545922945,
right,stop,2,0,2,0,8,0,48,5,983.8548560142517,None,1,0.3184359073638916,983.8548560142517,None,984.2740521430969,None,985.2721621990204,985.6259281635284,985.2721621990204,985.6259281635284,984.2740521430969,None,984.2740521430969,None,984.2740521430969,None,1,3,632.4856281280518,-1.0,-1,989.7937970161438,None,550,300,Uma_pilot,icub,clamp,2021_Dec_17_1503,exp,2021.2.3,59.963515545922945,
right,go,2,0,2,0,8,1,49,3,990.3260090351105,None,1,0.8888731002807617,990.3260090351105,None,991.3121590614319,None,992.302707195282,992.6378920078278,992.302707195282,992.6378920078278,991.3121590614319,None,991.3121590614319,None,991.3121590614319,None,1,3,442.46697425842285,652.0373821258545,right,994.2984480857849,None,-1,-1,Uma_pilot,icub,clamp,2021_Dec_17_1503,exp,2021.2.3,59.963515545922945,
left,go,2,0,2,0,8,2,50,0,994.8162870407104,None,1,0.2658731937408447,994.8162870407104,None,995.1728520393372,None,996.2074370384216,996.5534751415253,996.2074370384216,996.5534751415253,995.1728520393372,None,995.1728520393372,None,995.1728520393372,None,1,3,514.3327713012695,471.15063667297363,left,998.0294930934906,None,-1,-1,Uma_pilot,icub,clamp,2021_Dec_17_1503,exp,2021.2.3,59.963515545922945,
left,stop,2,0,2,0,8,3,51,2,998.5471301078796,None,1,0.3207061290740967,998.5471301078796,None,998.9694139957428,None,999.9971680641174,1000.351958990097,999.9971680641174,1000.351958990097,998.9694139957428,None,998.9694139957428,None,998.9694139957428,None,0,3,681.6074848175049,729.870080947876,left,1002.2959961891174,None,550,350,Uma_pilot,icub,clamp,2021_Dec_17_1503,exp,2021.2.3,59.963515545922945,
right,stop,2,0,2,0,8,4,52,5,1002.7972130775452,None,1,0.3796970844268799,1002.7972130775452,None,1003.2784299850464,None,1004.3024740219116,1004.6554510593414,1004.3024740219116,1004.6554510593414,1003.2784299850464,None,1003.2784299850464,None,1003.2784299850464,None,1,3,341.18199348449707,-1.0,-1,1008.5135960578918,None,500,350,Uma_pilot,icub,clamp,2021_Dec_17_1503,exp,2021.2.3,59.963515545922945,
right,go,2,0,2,0,8,5,53,4,1009.0069279670715,None,1,0.46538877487182617,1009.0069279670715,None,1009.5579061508179,None,1010.5357451438904,1010.8911550045013,1010.5357451438904,1010.8911550045013,1009.5579061508179,None,1009.5579061508179,None,1009.5579061508179,None,1,3,541.5787696838379,715.1577472686768,right,1012.70729804039,None,-1,-1,Uma_pilot,icub,clamp,2021_Dec_17_1503,exp,2021.2.3,59.963515545922945,
right,stop,2,0,2,0,9,0,54,5,1013.2279381752014,None,1,0.3145029544830322,1013.2279381752014,None,1013.6455600261688,None,1014.6356401443481,1014.9970932006836,1014.6356401443481,1014.9970932006836,1013.6455600261688,None,1013.6455600261688,None,1013.6455600261688,None,1,3,915.6632423400879,-1.0,-1,1019.4335951805115,None,500,400,Uma_pilot,icub,clamp,2021_Dec_17_1503,exp,2021.2.3,59.963515545922945,
right,go,2,0,2,0,9,1,55,3,1019.9667069911957,None,1,1.6595280170440674,1019.9667069911957,None,1021.759015083313,None,1022.7403440475464,1023.0824580192566,1022.7403440475464,1023.0824580192566,1021.759015083313,None,1021.759015083313,None,1021.759015083313,None,1,3,526.1025428771973,1505.0652027130127,right,1025.6609961986542,None,-1,-1,Uma_pilot,icub,clamp,2021_Dec_17_1503,exp,2021.2.3,59.963515545922945,
left,stop,2,0,2,0,9,2,56,2,1026.175763130188,None,1,0.481050968170166,1026.175763130188,None,1026.7774860858917,None,1027.8056399822235,1028.1590540409088,1027.8056399822235,1028.1590540409088,1026.7774860858917,None,1026.7774860858917,None,1026.7774860858917,None,0,3,553.7216663360596,587.7978801727295,left,1029.822890996933,None,500,450,Uma_pilot,icub,clamp,2021_Dec_17_1503,exp,2021.2.3,59.963515545922945,
right,stop,2,0,2,0,9,3,57,5,1030.3233811855316,None,1,0.3584308624267578,1030.3233811855316,None,1030.801764011383,None,1031.8058831691742,1032.1662390232086,1031.8058831691742,1032.1662390232086,1030.801764011383,None,1030.801764011383,None,1030.801764011383,None,1,3,443.6817169189453,-1.0,-1,1036.1489470005035,None,450,450,Uma_pilot,icub,clamp,2021_Dec_17_1503,exp,2021.2.3,59.963515545922945,
left,go,2,0,2,0,9,4,58,0,1036.6433851718903,None,1,1.0719668865203857,1036.6433851718903,None,1037.8154101371765,None,1038.795030117035,1039.140037059784,1038.795030117035,1039.140037059784,1037.8154101371765,None,1037.8154101371765,None,1037.8154101371765,None,1,3,281.3830375671387,694.023847579956,left,1040.6698369979858,None,-1,-1,Uma_pilot,icub,clamp,2021_Dec_17_1503,exp,2021.2.3,59.963515545922945,
right,go,2,0,2,0,9,5,59,3,1041.1854691505432,None,1,0.32360219955444336,1041.1854691505432,None,1041.599575996399,None,1042.615023136139,1042.9734370708466,1042.615023136139,1042.9734370708466,1041.599575996399,None,1041.599575996399,None,1041.599575996399,None,1,3,383.634090423584,905.1623344421387,right,1044.7742340564728,None,-1,-1,Uma_pilot,icub,clamp,2021_Dec_17_1503,exp,2021.2.3,59.963515545922945,
right,go,2,0,2,0,10,0,60,4,1045.2762961387634,None,1,0.34554100036621094,1045.2762961387634,None,1045.6973299980164,None,1046.7292220592499,1047.0888321399689,1046.7292220592499,1047.0888321399689,1045.6973299980164,None,1045.6973299980164,None,1045.6973299980164,None,1,3,539.2568111419678,581.7723274230957,right,1048.6973149776459,None,-1,-1,Uma_pilot,icub,clamp,2021_Dec_17_1503,exp,2021.2.3,59.963515545922945,
left,go,2,0,2,0,10,1,61,0,1049.2020890712738,None,1,0.41054511070251465,1049.2020890712738,None,1049.7399861812592,None,1050.7350959777832,1051.105406999588,1050.7350959777832,1051.105406999588,1049.7399861812592,None,1049.7399861812592,None,1049.7399861812592,None,1,3,308.5181713104248,660.5758666992188,left,1052.6089391708374,None,-1,-1,Uma_pilot,icub,clamp,2021_Dec_17_1503,exp,2021.2.3,59.963515545922945,
right,stop,2,0,2,0,10,2,62,5,1053.1314589977264,None,1,0.16819405555725098,1053.1314589977264,None,1053.422466993332,None,1054.4446940422058,1054.7955811023712,1054.4446940422058,1054.7955811023712,1053.422466993332,None,1053.422466993332,None,1053.422466993332,None,0,3,149.78265762329102,520.0302600860596,right,1055.993970155716,None,450,500,Uma_pilot,icub,clamp,2021_Dec_17_1503,exp,2021.2.3,59.963515545922945,
left,go,2,0,2,0,10,3,63,1,1056.523138999939,None,1,0.1844480037689209,1056.523138999939,None,1056.818358182907,None,1057.8199021816254,1058.1642491817474,1057.8199021816254,1058.1642491817474,1056.818358182907,None,1056.818358182907,None,1056.818358182907,None,1,3,334.306001663208,551.0733127593994,left,1059.585704088211,None,-1,-1,Uma_pilot,icub,clamp,2021_Dec_17_1503,exp,2021.2.3,59.963515545922945,
right,go,2,0,2,0,10,4,64,3,1060.089539051056,None,1,0.13510513305664062,1060.089539051056,None,1060.3257880210876,None,1061.3451101779938,1061.6882700920105,1061.3451101779938,1061.6882700920105,1060.3257880210876,None,1060.3257880210876,None,1060.3257880210876,None,1,3,1007.5123310089111,533.7984561920166,right,1063.7545101642609,None,-1,-1,Uma_pilot,icub,clamp,2021_Dec_17_1503,exp,2021.2.3,59.963515545922945,
left,go,2,0,2,0,10,5,65,1,1064.2688620090485,None,1,0.28389477729797363,1064.2688620090485,None,1064.6282951831818,None,1065.6514179706573,1066.0163021087646,1065.6514179706573,1066.0163021087646,1064.6282951831818,None,1064.6282951831818,None,1064.6282951831818,None,1,3,359.5592975616455,544.842004776001,left,1067.4033470153809,None,-1,-1,Uma_pilot,icub,clamp,2021_Dec_17_1503,exp,2021.2.3,59.963515545922945,
left,go,2,0,2,0,11,0,66,0,1067.9230151176453,None,1,0.2346200942993164,1067.9230151176453,None,1068.276866197586,None,1069.3113341331482,1069.6638450622559,1069.3113341331482,1069.6638450622559,1068.276866197586,None,1068.276866197586,None,1068.276866197586,None,1,3,543.7591075897217,679.1088581085205,left,1071.379489183426,None,-1,-1,Uma_pilot,icub,clamp,2021_Dec_17_1503,exp,2021.2.3,59.963515545922945,
right,stop,2,0,2,0,11,1,67,5,1071.888372182846,None,1,0.3522360324859619,1071.888372182846,None,1072.3683450222015,None,1073.3831369876862,1073.7322330474854,1073.3831369876862,1073.7322330474854,1072.3683450222015,None,1072.3683450222015,None,1072.3683450222015,None,0,3,315.06872177124023,551.3558387756348,right,1075.1430690288544,None,450,450,Uma_pilot,icub,clamp,2021_Dec_17_1503,exp,2021.2.3,59.963515545922945,
left,go,2,0,2,0,11,2,68,1,1075.6645650863647,None,1,0.40207910537719727,1075.6645650863647,None,1076.1471071243286,None,1077.1676959991455,1077.5358572006226,1077.1676959991455,1077.5358572006226,1076.1471071243286,None,1076.1471071243286,None,1076.1471071243286,None,1,3,160.85267066955566,1688.0574226379395,left,1079.877119064331,None,-1,-1,Uma_pilot,icub,clamp,2021_Dec_17_1503,exp,2021.2.3,59.963515545922945,
left,go,2,0,2,0,11,3,69,0,1080.3982591629028,None,1,0.1035759449005127,1080.3982591629028,None,1080.6306841373444,None,1081.6509580612183,1082.0123281478882,1081.6509580612183,1082.0123281478882,1080.6306841373444,None,1080.6306841373444,None,1080.6306841373444,None,1,3,448.0712413787842,525.7365703582764,left,1083.5093591213226,None,-1,-1,Uma_pilot,icub,clamp,2021_Dec_17_1503,exp,2021.2.3,59.963515545922945,
right,stop,2,0,2,0,11,4,70,5,1084.0147080421448,None,1,0.2547299861907959,1084.0147080421448,None,1084.370355129242,None,1085.3676869869232,1085.7140560150146,1085.3676869869232,1085.7140560150146,1084.370355129242,None,1084.370355129242,None,1084.370355129242,None,1,3,615.8370971679688,-1.0,-1,1089.890384197235,None,450,400,Uma_pilot,icub,clamp,2021_Dec_17_1503,exp,2021.2.3,59.963515545922945,
right,stop,2,0,2,0,11,5,71,5,1090.4237129688263,None,1,0.12533807754516602,1090.4237129688263,None,1090.6648020744324,None,1091.650731086731,1092.0052440166473,1091.650731086731,1092.0052440166473,1090.6648020744324,None,1090.6648020744324,None,1090.6648020744324,None,1,3,414.870023727417,-1.0,-1,1095.9687831401825,None,450,450,Uma_pilot,icub,clamp,2021_Dec_17_1503,exp,2021.2.3,59.963515545922945,
right,go,2,0,2,0,12,0,72,3,1096.5007750988007,None,1,0.5072760581970215,1096.5007750988007,None,1097.1145169734955,None,1098.090213060379,1098.4347341060638,1098.090213060379,1098.4347341060638,1097.1145169734955,None,1097.1145169734955,None,1097.1145169734955,None,1,3,293.53976249694824,599.2391109466553,right,1099.9012370109558,None,-1,-1,Uma_pilot,icub,clamp,2021_Dec_17_1503,exp,2021.2.3,59.963515545922945,
left,stop,2,0,2,0,12,1,73,2,1100.4300360679626,None,1,0.3497281074523926,1100.4300360679626,None,1100.9085531234741,None,1101.904047012329,1102.2401630878448,1101.904047012329,1102.2401630878448,1100.9085531234741,None,1100.9085531234741,None,1100.9085531234741,None,1,3,230.77893257141113,-1.0,-1,1106.0272071361542,None,450,500,Uma_pilot,icub,clamp,2021_Dec_17_1503,exp,2021.2.3,59.963515545922945,
right,go,2,0,2,0,12,2,74,4,1106.55952501297,None,1,1.0682909488677979,1106.55952501297,None,1107.734218120575,None,1108.740077972412,1109.0960330963135,1108.740077972412,1109.0960330963135,1107.734218120575,None,1107.734218120575,None,1107.734218120575,None,1,3,491.802453994751,699.7051239013672,right,1110.8191900253296,None,-1,-1,Uma_pilot,icub,clamp,2021_Dec_17_1503,exp,2021.2.3,59.963515545922945,
right,stop,2,0,2,0,12,3,75,5,1111.3538889884949,None,1,0.4975590705871582,1111.3538889884949,None,1111.9584860801697,None,1112.9675860404968,1113.319107055664,1112.9675860404968,1113.319107055664,1111.9584860801697,None,1111.9584860801697,None,1111.9584860801697,None,1,3,532.7377319335938,-1.0,-1,1117.3639450073242,None,500,500,Uma_pilot,icub,clamp,2021_Dec_17_1503,exp,2021.2.3,59.963515545922945,
right,stop,2,0,2,0,12,4,76,5,1117.8953740596771,None,1,0.4365091323852539,1117.8953740596771,None,1118.4454991817474,None,1119.427612066269,1119.7815430164337,1119.427612066269,1119.7815430164337,1118.4454991817474,None,1118.4454991817474,None,1118.4454991817474,None,0,3,523.6673355102539,516.7627334594727,right,1121.3571140766144,None,500,550,Uma_pilot,icub,clamp,2021_Dec_17_1503,exp,2021.2.3,59.963515545922945,
right,go,2,0,2,0,12,5,77,3,1121.8715059757233,None,1,0.5091381072998047,1121.8715059757233,None,1122.476026058197,None,1123.469202041626,1123.8262870311737,1123.469202041626,1123.8262870311737,1122.476026058197,None,1122.476026058197,None,1122.476026058197,None,1,3,642.7876949310303,1067.1544075012207,right,1126.1021580696106,None,-1,-1,Uma_pilot,icub,clamp,2021_Dec_17_1503,exp,2021.2.3,59.963515545922945,
right,go,3,0,3,0,0,0,0,3,1133.4479789733887,None,1,2.195406913757324,1133.4479789733887,None,1135.759390115738,None,None,None,None,None,1135.759390115738,None,1135.759390115738,None,1135.759390115738,None,0,3,-1.0,-1.0,-1,1135.8816211223602,None,,,Uma_pilot,icub,clamp,2021_Dec_17_1503,exp,2021.2.3,59.963515545922945,
left,go,3,0,3,0,0,1,1,0,1136.413300037384,None,1,0.3488931655883789,1136.413300037384,None,1136.9007170200348,None,1137.8822321891785,1138.2421970367432,1137.8822321891785,1138.2421970367432,1136.9007170200348,None,1136.9007170200348,None,1136.9007170200348,None,1,3,584.5823287963867,648.6079692840576,left,1140.040423154831,None,-1,-1,Uma_pilot,icub,clamp,2021_Dec_17_1503,exp,2021.2.3,59.963515545922945,
left,go,3,0,3,0,0,2,2,0,1140.5665681362152,None,1,0.32897210121154785,1140.5665681362152,None,1140.9866650104523,None,1141.9814009666443,1142.3474850654602,1141.9814009666443,1142.3474850654602,1140.9866650104523,None,1140.9866650104523,None,1140.9866650104523,None,1,3,339.3378257751465,541.4149761199951,left,1143.759936094284,None,-1,-1,Uma_pilot,icub,clamp,2021_Dec_17_1503,exp,2021.2.3,59.963515545922945,
right,go,3,0,3,0,0,3,3,3,1144.2766690254211,None,1,0.35871386528015137,1144.2766690254211,None,1144.754450082779,None,1145.7712051868439,1146.1412780284882,1145.7712051868439,1146.1412780284882,1144.754450082779,None,1144.754450082779,None,1144.754450082779,None,1,3,340.75164794921875,522.2969055175781,right,1147.5197141170502,None,-1,-1,Uma_pilot,icub,clamp,2021_Dec_17_1503,exp,2021.2.3,59.963515545922945,
right,stop,3,0,3,0,0,4,4,5,1148.0307099819183,None,1,0.332197904586792,1148.0307099819183,None,1148.453665971756,None,1149.458456993103,1149.8071839809418,1149.458456993103,1149.8071839809418,1148.453665971756,None,1148.453665971756,None,1148.453665971756,None,0,3,572.0760822296143,610.4419231414795,right,1151.5179860591888,None,500,500,Uma_pilot,icub,clamp,2021_Dec_17_1503,exp,2021.2.3,59.963515545922945,
right,go,3,0,3,0,0,5,5,4,1152.0366141796112,None,1,0.42310595512390137,1152.0366141796112,None,1152.5782260894775,None,1153.5912091732025,1153.9513881206512,1153.5912091732025,1153.9513881206512,1152.5782260894775,None,1152.5782260894775,None,1152.5782260894775,None,1,3,263.4906768798828,506.01840019226074,right,1155.243535041809,None,-1,-1,Uma_pilot,icub,clamp,2021_Dec_17_1503,exp,2021.2.3,59.963515545922945,
left,stop,3,0,3,0,1,0,6,2,1155.7602591514587,None,1,0.2410879135131836,1155.7602591514587,None,1156.1172270774841,None,1157.1184849739075,1157.4762179851532,1157.1184849739075,1157.4762179851532,1156.1172270774841,None,1156.1172270774841,None,1156.1172270774841,None,0,3,332.6728343963623,544.7177886962891,left,1158.8797969818115,None,500,450,Uma_pilot,icub,clamp,2021_Dec_17_1503,exp,2021.2.3,59.963515545922945,
left,go,3,0,3,0,1,1,7,1,1159.400847196579,None,1,0.36978697776794434,1159.400847196579,None,1159.880704164505,None,1160.879268169403,1161.24090218544,1160.879268169403,1161.24090218544,1159.880704164505,None,1159.880704164505,None,1159.880704164505,None,1,3,659.5265865325928,706.5877914428711,left,1163.1420149803162,None,-1,-1,Uma_pilot,icub,clamp,2021_Dec_17_1503,exp,2021.2.3,59.963515545922945,
right,stop,3,0,3,0,1,2,8,5,1163.678372144699,None,1,0.19176292419433594,1163.678372144699,None,1163.978224992752,None,1164.9916121959686,1165.339101076126,1164.9916121959686,1165.339101076126,1163.978224992752,None,1163.978224992752,None,1163.978224992752,None,1,3,649.1050720214844,-1.0,-1,1169.5197460651398,None,450,450,Uma_pilot,icub,clamp,2021_Dec_17_1503,exp,2021.2.3,59.963515545922945,
left,stop,3,0,3,0,1,3,9,2,1170.0526809692383,None,1,0.433150053024292,1170.0526809692383,None,1170.603900194168,None,1171.5897731781006,1171.9372091293335,1171.5897731781006,1171.9372091293335,1170.603900194168,None,1170.603900194168,None,1170.603900194168,None,0,3,337.5134468078613,484.60936546325684,left,1173.3310849666595,None,450,500,Uma_pilot,icub,clamp,2021_Dec_17_1503,exp,2021.2.3,59.963515545922945,
left,go,3,0,3,0,1,4,10,1,1173.8432312011719,None,1,0.23609280586242676,1173.8432312011719,None,1174.1987311840057,None,1175.2292881011963,1175.5811700820923,1175.2292881011963,1175.5811700820923,1174.1987311840057,None,1174.1987311840057,None,1174.1987311840057,None,1,3,568.2106018066406,755.1045417785645,left,1177.4007391929626,None,-1,-1,Uma_pilot,icub,clamp,2021_Dec_17_1503,exp,2021.2.3,59.963515545922945,
right,stop,3,0,3,0,1,5,11,5,1177.894296169281,None,1,0.3651390075683594,1177.894296169281,None,1178.373787164688,None,1179.4015860557556,1179.7587451934814,1179.4015860557556,1179.7587451934814,1178.373787164688,None,1178.373787164688,None,1178.373787164688,None,0,3,412.92762756347656,561.1486434936523,right,1181.2291510105133,None,400,500,Uma_pilot,icub,clamp,2021_Dec_17_1503,exp,2021.2.3,59.963515545922945,
